trials.thisRepN,trials.thisTrialN,trials.thisN,trials.thisIndex,thisRow.t,notes,trial.started,num_distr,fixation.started,target.started,mouse.started,fixation.stopped,trial.stopped,mouse.x,mouse.y,mouse.leftButton,mouse.midButton,mouse.rightButton,mouse.time,mouse.clicked_name,participant,session,date,expName,psychopyVersion,frameRate,expStart,
0,0,0,0,0.05449750000002496,,0.010429299999941577,5,0.05449750000002496,0.05449750000002496,0.03552170000011756,1.0884753000000273,2.7954247999998643,[-0.20703125],[0.02734375],[1],[0],[0],[2.75501179999992],['target'],172101,001,2024-10-04_11h14.59.723,visual search task,2024.1.5,None,2024-10-04 11h15.07.519662 +0530,
1,0,1,0,2.854811199999858,,2.8091517000000295,5,2.854811199999858,2.854811199999858,0.025612899999941874,3.871757099999968,4.407373399999869,[0.036458333333333336],[-0.09635416666666667],[1],[0],[0],[1.573707400000103],['target'],172101,001,2024-10-04_11h14.59.723,visual search task,2024.1.5,None,2024-10-04 11h15.07.519662 +0530,
2,0,2,0,4.4563601999998355,,4.417851299999938,5,4.4563601999998355,4.4563601999998355,0.027227499999980864,5.505115700000033,6.0084499999998116,[-0.2643229166666667],[0.2669270833333333],[1],[0],[0],[1.5646423999999115],['target'],172101,001,2024-10-04_11h14.59.723,visual search task,2024.1.5,None,2024-10-04 11h15.07.519662 +0530,
3,0,3,0,6.121149599999853,,6.018463499999825,10,6.121149599999853,6.121149599999853,0.06949969999982386,7.138434999999845,7.391206000000011,[-0.2877604166666667],[0.18229166666666666],[1],[0],[0],[1.3050181000000975],['target'],172101,001,2024-10-04_11h14.59.723,visual search task,2024.1.5,None,2024-10-04 11h15.07.519662 +0530,
4,0,4,0,7.438067499999988,,7.39536709999993,5,7.438067499999988,7.438067499999988,0.01776390000009087,8.471476400000029,8.775200699999914,[-0.21875],[0.375],[1],[0],[0],[1.3619790999998713],['target'],172101,001,2024-10-04_11h14.59.723,visual search task,2024.1.5,None,2024-10-04 11h15.07.519662 +0530,
5,0,5,0,8.85460349999994,,8.785544699999946,10,8.85460349999994,8.85460349999994,0.04621359999987362,9.871282099999917,10.705845699999827,[0.24609375],[-0.12369791666666667],[1],[0],[0],[1.8757823999999346],['target'],172101,001,2024-10-04_11h14.59.723,visual search task,2024.1.5,None,2024-10-04 11h15.07.519662 +0530,
6,0,6,0,10.754400000000032,,10.711283200000025,5,10.754400000000032,10.754400000000032,0.01995349999992868,11.78819899999985,12.290887099999964,[-0.22395833333333334],[0.15364583333333334],[1],[0],[0],[1.5599732999999105],['target'],172101,001,2024-10-04_11h14.59.723,visual search task,2024.1.5,None,2024-10-04 11h15.07.519662 +0530,
7,0,7,0,12.370892599999934,,12.301127799999904,10,12.370892599999934,12.370892599999934,0.045649800000092,13.390005199999905,14.056977499999903,[-0.4322916666666667],[-0.31640625],[1],[0],[0],[1.7117146999999022],['target'],172101,001,2024-10-04_11h14.59.723,visual search task,2024.1.5,None,2024-10-04 11h15.07.519662 +0530,
8,0,8,0,14.120928999999933,,14.068172300000015,5,14.120928999999933,14.120928999999933,0.030021899999837842,15.124164099999916,15.691644900000028,[-0.018229166666666668],[0.3125],[1],[0],[0],[1.5951290000000427],[],172101,001,2024-10-04_11h14.59.723,visual search task,2024.1.5,None,2024-10-04 11h15.07.519662 +0530,
9,0,9,0,15.77098819999992,,15.70222590000003,10,15.77098819999992,15.77098819999992,0.04720520000000761,16.787736600000017,17.156005499999992,[0.04296875],[-0.3229166666666667],[1],[0],[0],[1.4080821999998534],['target'],172101,001,2024-10-04_11h14.59.723,visual search task,2024.1.5,None,2024-10-04 11h15.07.519662 +0530,
10,0,10,0,17.237655599999925,,17.162539100000004,10,17.237655599999925,17.237655599999925,0.052601000000095155,18.2402282999999,18.608395799999926,[0.14973958333333334],[-0.12369791666666667],[1],[0],[0],[1.3948436999999103],['target'],172101,001,2024-10-04_11h14.59.723,visual search task,2024.1.5,None,2024-10-04 11h15.07.519662 +0530,
11,0,11,0,18.687554599999885,,18.62033099999985,10,18.687554599999885,18.687554599999885,0.04295320000005631,19.690726599999834,20.59369649999985,[-0.140625],[0.3697916666666667],[1],[0],[0],[1.932180199999948],['target'],172101,001,2024-10-04_11h14.59.723,visual search task,2024.1.5,None,2024-10-04 11h15.07.519662 +0530,
12,0,12,0,20.6375794999999,,20.59776739999984,5,20.6375794999999,20.6375794999999,0.01752499999997781,21.654792799999996,22.358841600000005,[0.3815104166666667],[-0.11197916666666667],[1],[0],[0],[1.7435299999999643],['target'],172101,001,2024-10-04_11h14.59.723,visual search task,2024.1.5,None,2024-10-04 11h15.07.519662 +0530,
13,0,13,0,22.437528799999882,,22.368461399999887,10,22.437528799999882,22.437528799999882,0.04154829999993126,23.454290499999843,24.124661299999843,[0.3658854166666667],[0.28515625],[1],[0],[0],[1.715827900000022],['target'],172101,001,2024-10-04_11h14.59.723,visual search task,2024.1.5,None,2024-10-04 11h15.07.519662 +0530,
14,0,14,0,24.187240199999906,,24.13503629999991,5,24.187240199999906,24.187240199999906,0.029959499999904438,25.20494439999993,28.007894599999872,[-0.4440104166666667],[0.4986979166666667],[1],[0],[0],[3.8442529999999806],['target'],172101,001,2024-10-04_11h14.59.723,visual search task,2024.1.5,None,2024-10-04 11h15.07.519662 +0530,
15,0,15,0,28.0564081,,28.018022999999857,5,28.0564081,28.0564081,0.0262695999999778,29.104442899999867,29.408401400000002,[-0.3802083333333333],[0.4231770833333333],[1],[0],[0],[1.3654226000001017],['target'],172101,001,2024-10-04_11h14.59.723,visual search task,2024.1.5,None,2024-10-04 11h15.07.519662 +0530,
16,0,16,0,29.457126199999948,,29.41817059999994,5,29.457126199999948,29.457126199999948,0.02685830000018541,30.48795640000003,31.47311479999985,[-0.2604166666666667],[0.2955729166666667],[1],[0],[0],[2.029382700000042],['target'],172101,001,2024-10-04_11h14.59.723,visual search task,2024.1.5,None,2024-10-04 11h15.07.519662 +0530,
17,0,17,0,31.570380099999966,,31.483190499999864,10,31.570380099999966,31.570380099999966,0.060279499999978725,32.603893699999844,32.86020480000002,[-0.33203125],[0.3177083333333333],[1],[0],[0],[1.3180136999999377],['target'],172101,001,2024-10-04_11h14.59.723,visual search task,2024.1.5,None,2024-10-04 11h15.07.519662 +0530,
18,0,18,0,32.920277699999815,,32.86436489999983,10,32.920277699999815,32.920277699999815,0.03447110000001885,33.93701699999997,35.04190410000001,[0.10677083333333333],[-0.40625],[1],[0],[0],[2.143242999999984],['target'],172101,001,2024-10-04_11h14.59.723,visual search task,2024.1.5,None,2024-10-04 11h15.07.519662 +0530,
19,0,19,0,35.120250899999974,,35.05304649999994,10,35.120250899999974,35.120250899999974,0.04449129999989054,36.15380089999985,36.59295320000001,[0.029947916666666668],[-0.029947916666666668],[1],[0],[0],[1.497200199999952],['target'],172101,001,2024-10-04_11h14.59.723,visual search task,2024.1.5,None,2024-10-04 11h15.07.519662 +0530,
20,0,20,0,36.63695740000003,,36.597532399999864,5,36.63695740000003,36.63695740000003,0.01794319999999061,37.67070089999993,38.406595199999856,[-0.40625],[0.2578125],[1],[0],[0],[1.7912357999998676],['target'],172101,001,2024-10-04_11h14.59.723,visual search task,2024.1.5,None,2024-10-04 11h15.07.519662 +0530,
21,0,21,0,38.47018830000002,,38.41670609999983,5,38.47018830000002,38.47018830000002,0.030095700000174475,39.504167699999925,39.84110039999996,[-0.3815104166666667],[-0.3671875],[1],[0],[0],[1.39566190000005],['target'],172101,001,2024-10-04_11h14.59.723,visual search task,2024.1.5,None,2024-10-04 11h15.07.519662 +0530,
22,0,22,0,39.889096799999834,,39.851302699999906,5,39.889096799999834,39.889096799999834,0.026589399999920715,40.92103619999989,41.557793100000026,[0.02734375],[0.19921875],[1],[0],[0],[1.6814320999999381],['target'],172101,001,2024-10-04_11h14.59.723,visual search task,2024.1.5,None,2024-10-04 11h15.07.519662 +0530,
23,0,23,0,41.63697049999996,,41.56923259999985,10,41.63697049999996,41.63697049999996,0.04487590000007913,42.63753409999981,43.45493509999983,[-0.16276041666666666],[0.40625],[1],[0],[0],[1.8427524999999605],['target'],172101,001,2024-10-04_11h14.59.723,visual search task,2024.1.5,None,2024-10-04 11h15.07.519662 +0530,
24,0,24,0,43.52000679999992,,43.460742999999866,10,43.52000679999992,43.52000679999992,0.03731489999995574,44.553592999999864,44.92276169999991,[-0.07421875],[0.3997395833333333],[1],[0],[0],[1.4252752999998393],['target'],172101,001,2024-10-04_11h14.59.723,visual search task,2024.1.5,None,2024-10-04 11h15.07.519662 +0530,
25,0,25,0,45.00350309999999,,44.928340599999956,10,45.00350309999999,45.00350309999999,0.05569429999991371,46.004180299999916,47.10686549999991,[-0.00390625],[-0.3372395833333333],[1],[0],[0],[2.1232911999998123],['target'],172101,001,2024-10-04_11h14.59.723,visual search task,2024.1.5,None,2024-10-04 11h15.07.519662 +0530,
26,0,26,0,47.15557579999995,,47.117442600000004,5,47.15557579999995,47.15557579999995,0.026692900000170994,48.187174599999935,48.52375639999991,[-0.09505208333333333],[-0.0703125],[1],[0],[0],[1.380981699999893],['target'],172101,001,2024-10-04_11h14.59.723,visual search task,2024.1.5,None,2024-10-04 11h15.07.519662 +0530,
27,0,27,0,48.603334499999846,,48.53378550000002,10,48.603334499999846,48.603334499999846,0.04328609999993205,49.62009799999987,50.03885589999982,[0.328125],[0.13151041666666666],[1],[0],[0],[1.4632728999999927],['target'],172101,001,2024-10-04_11h14.59.723,visual search task,2024.1.5,None,2024-10-04 11h15.07.519662 +0530,
28,0,28,0,50.087824599999976,,50.05024289999983,5,50.087824599999976,50.087824599999976,0.02643220000004476,51.12065459999985,52.25787359999981,[0.4309895833333333],[-0.4244791666666667],[1],[0],[0],[2.1826865999998972],['target'],172101,001,2024-10-04_11h14.59.723,visual search task,2024.1.5,None,2024-10-04 11h15.07.519662 +0530,
29,0,29,0,52.336650599999984,,52.267916000000014,10,52.336650599999984,52.336650599999984,0.04617840000014439,53.35336099999995,54.189901199999895,[-0.3424479166666667],[-0.22135416666666666],[1],[0],[0],[1.8772208000000319],['target'],172101,001,2024-10-04_11h14.59.723,visual search task,2024.1.5,None,2024-10-04 11h15.07.519662 +0530,
30,0,30,0,54.23639170000001,,54.19484219999981,5,54.23639170000001,54.23639170000001,0.019151499999907173,55.25398499999983,55.89044459999991,[0.3229166666666667],[0.23177083333333334],[1],[0],[0],[1.6766331999999693],['target'],172101,001,2024-10-04_11h14.59.723,visual search task,2024.1.5,None,2024-10-04 11h15.07.519662 +0530,
31,0,31,0,55.95307459999981,,55.900776699999824,5,55.95307459999981,55.95307459999981,0.030408800000031988,56.98692549999987,57.62389609999991,[0.21354166666666666],[-0.37109375],[1],[0],[0],[1.6940382000000227],['target'],172101,001,2024-10-04_11h14.59.723,visual search task,2024.1.5,None,2024-10-04 11h15.07.519662 +0530,
32,0,32,0,57.71964089999983,,57.63415199999986,10,57.71964089999983,57.71964089999983,0.06002170000010665,58.72037089999981,58.922440800000004,[0.1953125],[-0.14322916666666666],[1],[0],[0],[1.2299521999998433],['target'],172101,001,2024-10-04_11h14.59.723,visual search task,2024.1.5,None,2024-10-04 11h15.07.519662 +0530,
33,0,33,0,58.97348779999993,,58.93363709999994,5,58.97348779999993,58.97348779999993,0.02871010000012575,60.02016229999981,60.457349599999816,[-0.11848958333333333],[-0.10546875],[1],[0],[0],[1.4966421999999966],['target'],172101,001,2024-10-04_11h14.59.723,visual search task,2024.1.5,None,2024-10-04 11h15.07.519662 +0530,
34,0,34,0,60.536389899999904,,60.46779429999992,10,60.536389899999904,60.536389899999904,0.047055799999952796,61.55399609999995,62.17233759999999,[0.36328125],[-0.18359375],[1],[0],[0],[1.6592361999998957],[],172101,001,2024-10-04_11h14.59.723,visual search task,2024.1.5,None,2024-10-04 11h15.07.519662 +0530,
35,0,35,0,62.21945379999988,,62.17850989999988,5,62.21945379999988,62.21945379999988,0.021539399999937814,63.23830879999991,63.70760879999989,[-0.4609375],[-0.09635416666666667],[1],[0],[0],[1.5079095999999481],['target'],172101,001,2024-10-04_11h14.59.723,visual search task,2024.1.5,None,2024-10-04 11h15.07.519662 +0530,
36,0,36,0,63.78629319999982,,63.71805599999993,10,63.78629319999982,63.78629319999982,0.04420930000014778,64.80490509999981,65.43791659999988,[-0.0013020833333333333],[0.3697916666666667],[1],[0],[0],[1.6772091000000273],['target'],172101,001,2024-10-04_11h14.59.723,visual search task,2024.1.5,None,2024-10-04 11h15.07.519662 +0530,
37,0,37,0,65.4861590999999,,65.44388859999981,5,65.4861590999999,65.4861590999999,0.020890600000029735,66.50605629999995,67.0407029999999,[-0.22526041666666666],[0.4427083333333333],[1],[0],[0],[1.5760446000001593],['target'],172101,001,2024-10-04_11h14.59.723,visual search task,2024.1.5,None,2024-10-04 11h15.07.519662 +0530,
38,0,38,0,67.10482860000002,,67.05073089999996,5,67.10482860000002,67.10482860000002,0.03936229999999341,68.11942109999995,68.77359389999992,[0.11328125],[-0.3841145833333333],[1],[0],[0],[1.6848337000001266],[],172101,001,2024-10-04_11h14.59.723,visual search task,2024.1.5,None,2024-10-04 11h15.07.519662 +0530,
39,0,39,0,68.85261530000002,,68.78383029999986,10,68.85261530000002,68.85261530000002,0.04256529999997838,69.86931770000001,69.98744349999993,[-0.17317708333333334],[-0.3671875],[1],[0],[0],[1.162516099999948],['target'],172101,001,2024-10-04_11h14.59.723,visual search task,2024.1.5,None,2024-10-04 11h15.07.519662 +0530,
40,0,40,0,70.03971260000003,,69.99952839999992,5,70.03971260000003,70.03971260000003,0.029567300000053365,71.06973589999984,71.30617009999992,[-0.109375],[-0.23177083333333334],[1],[0],[0],[1.2788656999998693],[],172101,001,2024-10-04_11h14.59.723,visual search task,2024.1.5,None,2024-10-04 11h15.07.519662 +0530,
41,0,41,0,71.38976579999985,,71.31645129999993,10,71.38976579999985,71.38976579999985,0.043067199999995864,72.42026829999986,72.77196089999984,[0.037760416666666664],[-0.12369791666666667],[1],[0],[0],[1.4138189000000239],['target'],172101,001,2024-10-04_11h14.59.723,visual search task,2024.1.5,None,2024-10-04 11h15.07.519662 +0530,
42,0,42,0,72.82046229999992,,72.78229009999995,5,72.82046229999992,72.82046229999992,0.02605400000015834,73.83639159999984,74.27230799999984,[-0.3736979166666667],[-0.040364583333333336],[1],[0],[0],[1.4653104999999869],['target'],172101,001,2024-10-04_11h14.59.723,visual search task,2024.1.5,None,2024-10-04 11h15.07.519662 +0530,
43,0,43,0,74.35269589999984,,74.28263129999982,10,74.35269589999984,74.35269589999984,0.047196799999937866,75.36947539999983,76.05427669999995,[0.3463541666666667],[-0.08984375],[1],[0],[0],[1.7262837000000673],['target'],172101,001,2024-10-04_11h14.59.723,visual search task,2024.1.5,None,2024-10-04 11h15.07.519662 +0530,
44,0,44,0,76.10250439999982,,76.06046709999987,5,76.10250439999982,76.10250439999982,0.020993899999893983,77.11961980000001,77.59068549999984,[-0.07552083333333333],[0.26953125],[1],[0],[0],[1.509522600000082],['target'],172101,001,2024-10-04_11h14.59.723,visual search task,2024.1.5,None,2024-10-04 11h15.07.519662 +0530,
45,0,45,0,77.66903849999994,,77.60063009999999,10,77.66903849999994,77.66903849999994,0.04251899999985653,78.70373679999989,79.47063649999996,[0.2799479166666667],[0.2994791666666667],[1],[0],[0],[1.82888220000018],['target'],172101,001,2024-10-04_11h14.59.723,visual search task,2024.1.5,None,2024-10-04 11h15.07.519662 +0530,
46,0,46,0,79.51918049999995,,79.47605679999992,5,79.51918049999995,79.51918049999995,0.020158599999831495,80.53585269999985,81.30558580000002,[0.4401041666666667],[-0.3333333333333333],[1],[0],[0],[1.8095828999998957],[],172101,001,2024-10-04_11h14.59.723,visual search task,2024.1.5,None,2024-10-04 11h15.07.519662 +0530,
47,0,47,0,81.38556559999984,,81.31628109999997,10,81.38556559999984,81.38556559999984,0.04453949999992801,82.4024339,82.90415039999993,[-0.3046875],[-0.0234375],[1],[0],[0],[1.5451802000000043],[],172101,001,2024-10-04_11h14.59.723,visual search task,2024.1.5,None,2024-10-04 11h15.07.519662 +0530,
48,0,48,0,82.95218920000002,,82.90998100000002,5,82.95218920000002,82.95218920000002,0.020971400000007634,,83.12129429999982,[-0.3046875],[-0.0234375],[1],[0],[0],[0.19083379999983663],[],172101,001,2024-10-04_11h14.59.723,visual search task,2024.1.5,None,2024-10-04 11h15.07.519662 +0530,
49,0,49,0,83.16889849999984,,83.12969079999993,5,83.16889849999984,83.16889849999984,0.026244900000165217,84.18604419999997,85.00474729999996,[0.3854166666666667],[-0.4296875],[1],[0],[0],[1.8498282999998992],[],172101,001,2024-10-04_11h14.59.723,visual search task,2024.1.5,None,2024-10-04 11h15.07.519662 +0530,
50,0,50,0,85.06911070000001,,85.01516609999999,5,85.06911070000001,85.06911070000001,0.030714800000168907,86.10272379999992,86.7383253999999,[0.19140625],[0.296875],[1],[0],[0],[1.6939311999999518],['target'],172101,001,2024-10-04_11h14.59.723,visual search task,2024.1.5,None,2024-10-04 11h15.07.519662 +0530,
51,0,51,0,86.81873569999993,,86.74844969999981,10,86.81873569999993,86.81873569999993,0.04649820000008731,87.85239299999989,87.95433099999991,[0.23046875],[0.2643229166666667],[1],[0],[0],[1.1609964000001582],['target'],172101,001,2024-10-04_11h14.59.723,visual search task,2024.1.5,None,2024-10-04 11h15.07.519662 +0530,
52,0,52,0,88.00428429999988,,87.96647710000002,5,88.00428429999988,88.00428429999988,0.027203999999983353,89.03592159999994,89.87328719999982,[-0.4296875],[0.421875],[1],[0],[0],[1.8817170999998325],['target'],172101,001,2024-10-04_11h14.59.723,visual search task,2024.1.5,None,2024-10-04 11h15.07.519662 +0530,
53,0,53,0,89.95199579999985,,89.88363869999989,10,89.95199579999985,89.95199579999985,0.04413950000002842,90.96882800000003,91.55659189999983,[-0.018229166666666668],[-0.2955729166666667],[1],[0],[0],[1.6304686000000856],['target'],172101,001,2024-10-04_11h14.59.723,visual search task,2024.1.5,None,2024-10-04 11h15.07.519662 +0530,
54,0,54,0,91.63553719999982,,91.56681329999992,10,91.63553719999982,91.63553719999982,0.046103200000061406,92.63555889999998,92.95506279999995,[0.3880208333333333],[-0.17838541666666666],[1],[0],[0],[1.3436289000001125],['target'],172101,001,2024-10-04_11h14.59.723,visual search task,2024.1.5,None,2024-10-04 11h15.07.519662 +0530,
55,0,55,0,93.01851409999995,,92.96091749999982,10,93.01851409999995,93.01851409999995,0.03666419999990467,94.02215249999995,95.27175729999999,[-0.3307291666666667],[0.4908854166666667],[1],[0],[0],[2.2746746999998777],['target'],172101,001,2024-10-04_11h14.59.723,visual search task,2024.1.5,None,2024-10-04 11h15.07.519662 +0530,
56,0,56,0,95.33539069999983,,95.27651079999987,10,95.33539069999983,95.33539069999983,0.03513820000011947,96.3520994999999,97.50591799999984,[-0.06901041666666667],[0.3658854166666667],[1],[0],[0],[2.1945742999998856],['target'],172101,001,2024-10-04_11h14.59.723,visual search task,2024.1.5,None,2024-10-04 11h15.07.519662 +0530,
57,0,57,0,97.56841869999994,,97.51396779999982,10,97.56841869999994,97.56841869999994,0.038860800000065865,98.58660509999982,99.62288039999999,[0.4518229166666667],[0.03125],[1],[0],[0],[2.070833200000152],['target'],172101,001,2024-10-04_11h14.59.723,visual search task,2024.1.5,None,2024-10-04 11h15.07.519662 +0530,
58,0,58,0,99.66860859999997,,99.63300069999991,5,99.66860859999997,99.66860859999997,0.023177799999984927,100.7022755999999,101.73881619999997,[-0.21744791666666666],[-0.3033854166666667],[1],[0],[0],[2.08357819999992],['target'],172101,001,2024-10-04_11h14.59.723,visual search task,2024.1.5,None,2024-10-04 11h15.07.519662 +0530,
59,0,59,0,101.81835660000002,,101.74910369999998,10,101.81835660000002,101.81835660000002,0.04346029999987877,102.83532479999985,103.67131489999997,[0.4479166666666667],[-0.032552083333333336],[1],[0],[0],[1.8802350000000843],['target'],172101,001,2024-10-04_11h14.59.723,visual search task,2024.1.5,None,2024-10-04 11h15.07.519662 +0530,
60,0,60,0,103.73498689999997,,103.67741089999981,10,103.73498689999997,103.73498689999997,0.03866379999999481,104.76842839999995,105.20603579999988,[-0.08854166666666667],[-0.17317708333333334],[1],[0],[0],[1.4902239000000463],['target'],172101,001,2024-10-04_11h14.59.723,visual search task,2024.1.5,None,2024-10-04 11h15.07.519662 +0530,
61,0,61,0,105.2697020999999,,105.21428089999995,10,105.2697020999999,105.2697020999999,0.03919709999991028,106.30152609999982,107.37114929999984,[0.4322916666666667],[0.10416666666666667],[1],[0],[0],[2.118826399999989],['target'],172101,001,2024-10-04_11h14.59.723,visual search task,2024.1.5,None,2024-10-04 11h15.07.519662 +0530,
62,0,62,0,107.45146649999992,,107.38284679999992,10,107.45146649999992,107.45146649999992,0.04666339999994307,108.45583979999992,108.90344159999995,[0.06380208333333333],[-0.06510416666666667],[1],[0],[0],[1.4755603000000974],['target'],172101,001,2024-10-04_11h14.59.723,visual search task,2024.1.5,None,2024-10-04 11h15.07.519662 +0530,
63,0,63,0,108.96811849999995,,108.90797429999998,10,108.96811849999995,108.96811849999995,0.03501479999999901,109.96982039999989,111.08752749999985,[0.2942708333333333],[0.4166666666666667],[1],[0],[0],[2.1447557999999844],['target'],172101,001,2024-10-04_11h14.59.723,visual search task,2024.1.5,None,2024-10-04 11h15.07.519662 +0530,
64,0,64,0,111.15534839999987,,111.09793389999982,10,111.15534839999987,111.15534839999987,0.04281700000001365,112.20147859999997,113.10305619999986,[-0.375],[0.42578125],[1],[0],[0],[1.9643252000000757],['target'],172101,001,2024-10-04_11h14.59.723,visual search task,2024.1.5,None,2024-10-04 11h15.07.519662 +0530,
65,0,65,0,113.15158599999995,,113.10869289999982,5,113.15158599999995,113.15158599999995,0.019455299999890485,114.18534690000001,114.55596089999995,[-0.015625],[0.061197916666666664],[1],[0],[0],[1.4278967000000193],['target'],172101,001,2024-10-04_11h14.59.723,visual search task,2024.1.5,None,2024-10-04 11h15.07.519662 +0530,
66,0,66,0,114.63462429999981,,114.56656169999997,10,114.63462429999981,114.63462429999981,0.044594599999982165,115.63614349999989,117.05373959999997,[0.4479166666666667],[-0.09505208333333333],[1],[0],[0],[2.44421269999998],['target'],172101,001,2024-10-04_11h14.59.723,visual search task,2024.1.5,None,2024-10-04 11h15.07.519662 +0530,
67,0,67,0,117.10467459999995,,117.06608559999995,5,117.10467459999995,117.10467459999995,0.02779469999995854,118.1519225999998,119.2041314999999,[0.4739583333333333],[0.5],[1],[0],[0],[2.112368399999923],['target'],172101,001,2024-10-04_11h14.59.723,visual search task,2024.1.5,None,2024-10-04 11h15.07.519662 +0530,
68,0,68,0,119.26817099999994,,119.21451329999991,5,119.26817099999994,119.26817099999994,0.027849999999943975,,119.33830909999983,[0.4739583333333333],[0.5],[1],[0],[0],[0.09709870000006049],[],172101,001,2024-10-04_11h14.59.723,visual search task,2024.1.5,None,2024-10-04 11h15.07.519662 +0530,
69,0,69,0,119.38687609999988,,119.34823419999998,5,119.38687609999988,119.38687609999988,0.027981899999986126,120.43514389999996,121.95396859999983,[0.0703125],[0.4309895833333333],[1],[0],[0],[2.579066799999964],['target'],172101,001,2024-10-04_11h14.59.723,visual search task,2024.1.5,None,2024-10-04 11h15.07.519662 +0530,
70,0,70,0,122.03458939999996,,121.96394239999995,10,122.03458939999996,122.03458939999996,0.043501599999899554,123.06787869999994,125.28570209999998,[-0.046875],[0.3372395833333333],[1],[0],[0],[3.2799360999999863],['target'],172101,001,2024-10-04_11h14.59.723,visual search task,2024.1.5,None,2024-10-04 11h15.07.519662 +0530,
71,0,71,0,125.33428209999988,,125.29076029999987,5,125.33428209999988,125.33428209999988,0.019978100000116683,126.35148889999982,127.48813380000001,[0.4544270833333333],[-0.061197916666666664],[1],[0],[0],[2.177844599999844],['target'],172101,001,2024-10-04_11h14.59.723,visual search task,2024.1.5,None,2024-10-04 11h15.07.519662 +0530,
72,0,72,0,127.62168299999985,,127.49647479999999,10,127.62168299999985,127.62168299999985,0.07939360000000306,128.65122799999995,129.33779919999984,[-0.2109375],[-0.06380208333333333],[1],[0],[0],[1.7630905999999413],['target'],172101,001,2024-10-04_11h14.59.723,visual search task,2024.1.5,None,2024-10-04 11h15.07.519662 +0530,
73,0,73,0,129.40101179999988,,129.34726249999994,5,129.40101179999988,129.40101179999988,0.03285789999995359,130.40346419999992,131.3038709,[-0.171875],[-0.3424479166666667],[1],[0],[0],[1.9251571999998305],['target'],172101,001,2024-10-04_11h14.59.723,visual search task,2024.1.5,None,2024-10-04 11h15.07.519662 +0530,
74,0,74,0,131.401077,,131.30936599999995,10,131.401077,131.401077,0.056830199999922115,132.43428299999982,133.37121219999995,[-0.0625],[-0.4114583333333333],[1],[0],[0],[2.005529400000114],['target'],172101,001,2024-10-04_11h14.59.723,visual search task,2024.1.5,None,2024-10-04 11h15.07.519662 +0530,
75,0,75,0,133.4342724999999,,133.38348359999986,5,133.4342724999999,133.4342724999999,0.027575500000011743,134.4679056,135.37194509999995,[-0.3502604166666667],[-0.1953125],[1],[0],[0],[1.9625508999999965],['target'],172101,001,2024-10-04_11h14.59.723,visual search task,2024.1.5,None,2024-10-04 11h15.07.519662 +0530,
76,0,76,0,135.43422699999996,,135.3824771999998,5,135.43422699999996,135.43422699999996,0.027570299999979397,136.45225549999986,137.58773699999983,[0.044270833333333336],[-0.45703125],[1],[0],[0],[2.1793750999997883],[],172101,001,2024-10-04_11h14.59.723,visual search task,2024.1.5,None,2024-10-04 11h15.07.519662 +0530,
77,0,77,0,137.66742569999997,,137.5978235,10,137.66742569999997,137.66742569999997,0.04622539999991204,138.7008303,139.4357642,[0.3424479166666667],[-0.40625],[1],[0],[0],[1.7933110999999826],['target'],172101,001,2024-10-04_11h14.59.723,visual search task,2024.1.5,None,2024-10-04 11h15.07.519662 +0530,
78,0,78,0,139.50062379999986,,139.44045289999985,10,139.50062379999986,139.50062379999986,0.035094600000093124,140.5203151999999,141.25465880000002,[-0.3138020833333333],[0.07942708333333333],[1],[0],[0],[1.7795215999999527],['target'],172101,001,2024-10-04_11h14.59.723,visual search task,2024.1.5,None,2024-10-04 11h15.07.519662 +0530,
79,0,79,0,141.33732469999995,,141.26648520000003,10,141.33732469999995,141.33732469999995,0.041347000000087064,142.3672841,142.6693269,[0.041666666666666664],[0.17838541666666666],[1],[0],[0],[1.3631360000001678],['target'],172101,001,2024-10-04_11h14.59.723,visual search task,2024.1.5,None,2024-10-04 11h15.07.519662 +0530,
80,0,80,0,142.73375099999998,,142.67602609999994,10,142.73375099999998,142.73375099999998,0.038014999999859356,143.7381828,144.55288559999985,[0.12369791666666667],[0.2994791666666667],[1],[0],[0],[1.8395979000001716],['target'],172101,001,2024-10-04_11h14.59.723,visual search task,2024.1.5,None,2024-10-04 11h15.07.519662 +0530,
81,0,81,0,144.6170649999999,,144.55928989999984,10,144.6170649999999,144.6170649999999,0.037038499999880514,145.65088379999997,147.1690853,[0.24869791666666666],[-0.453125],[1],[0],[0],[2.573416699999825],['target'],172101,001,2024-10-04_11h14.59.723,visual search task,2024.1.5,None,2024-10-04 11h15.07.519662 +0530,
82,0,82,0,147.2336307999999,,147.17571980000002,10,147.2336307999999,147.2336307999999,0.03713900000002468,148.2351690999999,149.21879289999993,[-0.2526041666666667],[-0.46875],[1],[0],[0],[2.006631700000071],['target'],172101,001,2024-10-04_11h14.59.723,visual search task,2024.1.5,None,2024-10-04 11h15.07.519662 +0530,
83,0,83,0,149.28368149999983,,149.2240706,10,149.28368149999983,149.28368149999983,0.03644099999996797,150.30114459999982,151.22017349999987,[0.42578125],[-0.14583333333333334],[1],[0],[0],[1.9601021999999375],['target'],172101,001,2024-10-04_11h14.59.723,visual search task,2024.1.5,None,2024-10-04 11h15.07.519662 +0530,
84,0,84,0,151.2671691999999,,151.22610559999998,5,151.2671691999999,151.2671691999999,0.020022299999936877,152.30080350000003,153.0717176999999,[0.3671875],[-0.22786458333333334],[1],[0],[0],[1.8257571999999982],['target'],172101,001,2024-10-04_11h14.59.723,visual search task,2024.1.5,None,2024-10-04 11h15.07.519662 +0530,
85,0,85,0,153.11746949999997,,153.0814585999999,5,153.11746949999997,153.11746949999997,0.0249250999997912,154.13400549999983,155.8031922,[-0.2838541666666667],[0.4231770833333333],[1],[0],[0],[2.6979730000000473],['target'],172101,001,2024-10-04_11h14.59.723,visual search task,2024.1.5,None,2024-10-04 11h15.07.519662 +0530,
86,0,86,0,155.8669829999999,,155.81352930000003,5,155.8669829999999,155.8669829999999,0.029814700000088123,156.88378879999982,158.25431600000002,[0.4309895833333333],[-0.22526041666666666],[1],[0],[0],[2.4123359000000164],['target'],172101,001,2024-10-04_11h14.59.723,visual search task,2024.1.5,None,2024-10-04 11h15.07.519662 +0530,
87,0,87,0,158.31700379999984,,158.2646049,5,158.31700379999984,158.31700379999984,0.029189299999870855,159.3505341,161.0705054,[-0.2669270833333333],[-0.10546875],[1],[0],[0],[2.778022100000044],['target'],172101,001,2024-10-04_11h14.59.723,visual search task,2024.1.5,None,2024-10-04 11h15.07.519662 +0530,
88,0,88,0,161.1203602999999,,161.08068359999993,5,161.1203602999999,161.1203602999999,0.02836369999999988,162.15063769999983,162.72006799999986,[0.32421875],[-0.15234375],[1],[0],[0],[1.6124002999999902],['target'],172101,001,2024-10-04_11h14.59.723,visual search task,2024.1.5,None,2024-10-04 11h15.07.519662 +0530,
89,0,89,0,162.79985609999994,,162.7302729999999,10,162.79985609999994,162.79985609999994,0.04488089999995282,163.80436480000003,164.3687359999999,[-0.05859375],[0.1953125],[1],[0],[0],[1.5952830999999605],['target'],172101,001,2024-10-04_11h14.59.723,visual search task,2024.1.5,None,2024-10-04 11h15.07.519662 +0530,
90,0,90,0,164.43754379999996,,164.37873189999982,10,164.43754379999996,164.43754379999996,0.04291699999998855,165.4542383999999,166.16974499999992,[0.3463541666666667],[0.4700520833333333],[1],[0],[0],[1.7493561999999656],['target'],172101,001,2024-10-04_11h14.59.723,visual search task,2024.1.5,None,2024-10-04 11h15.07.519662 +0530,
91,0,91,0,166.2164436999999,,166.1771710999999,5,166.2164436999999,166.2164436999999,0.02296559999990677,167.23360279999997,168.40432939999982,[0.2526041666666667],[0.5],[1],[0],[0],[2.204722499999889],['target'],172101,001,2024-10-04_11h14.59.723,visual search task,2024.1.5,None,2024-10-04 11h15.07.519662 +0530,
92,0,92,0,168.45235430000002,,168.41445469999985,5,168.45235430000002,168.45235430000002,0.027532400000154666,169.4837579,171.20358909999982,[-0.23958333333333334],[-0.2838541666666667],[1],[0],[0],[2.763012099999969],['target'],172101,001,2024-10-04_11h14.59.723,visual search task,2024.1.5,None,2024-10-04 11h15.07.519662 +0530,
93,0,93,0,171.25355149999996,,171.21405609999988,5,171.25355149999996,171.25355149999996,0.028117500000007567,172.30026569999995,172.9034122999999,[0.21875],[-0.07161458333333333],[1],[0],[0],[1.6626754999999775],['target'],172101,001,2024-10-04_11h14.59.723,visual search task,2024.1.5,None,2024-10-04 11h15.07.519662 +0530,
94,0,94,0,172.98292279999987,,172.9133543999999,10,172.98292279999987,172.98292279999987,0.04555060000006961,174.0165356,174.50315819999992,[0.10416666666666667],[-0.06510416666666667],[1],[0],[0],[1.5457088000000567],['target'],172101,001,2024-10-04_11h14.59.723,visual search task,2024.1.5,None,2024-10-04 11h15.07.519662 +0530,
95,0,95,0,174.5701082999999,,174.51465699999994,10,174.5701082999999,174.5701082999999,0.0396642000000611,175.60173169999985,177.1190967,[-0.4244791666666667],[0.4921875],[1],[0],[0],[2.5661918000000696],['target'],172101,001,2024-10-04_11h14.59.723,visual search task,2024.1.5,None,2024-10-04 11h15.07.519662 +0530,
96,0,96,0,177.1662778,,177.12919390000002,5,177.1662778,177.1662778,0.025755199999821343,178.18332599999985,179.11894599999982,[0.07942708333333333],[-0.33203125],[1],[0],[0],[1.9653232000000571],['target'],172101,001,2024-10-04_11h14.59.723,visual search task,2024.1.5,None,2024-10-04 11h15.07.519662 +0530,
97,0,97,0,179.18318469999986,,179.12922059999983,5,179.18318469999986,179.18318469999986,0.0328693999999814,180.21657329999994,180.91983989999994,[-0.3776041666666667],[-0.10026041666666667],[1],[0],[0],[1.759493799999973],['target'],172101,001,2024-10-04_11h14.59.723,visual search task,2024.1.5,None,2024-10-04 11h15.07.519662 +0530,
98,0,98,0,180.96797700000002,,180.92979689999993,5,180.96797700000002,180.96797700000002,0.02639410000006137,181.99983399999996,182.33729489999996,[-0.18489583333333334],[0.3723958333333333],[1],[0],[0],[1.3824495000001207],['target'],172101,001,2024-10-04_11h14.59.723,visual search task,2024.1.5,None,2024-10-04 11h15.07.519662 +0530,
99,0,99,0,182.38559399999986,,182.3476372,5,182.38559399999986,182.38559399999986,0.026458300000058443,183.4197067,184.36862339999993,[-0.10807291666666667],[0.3880208333333333],[1],[0],[0],[1.9963494000000992],['target'],172101,001,2024-10-04_11h14.59.723,visual search task,2024.1.5,None,2024-10-04 11h15.07.519662 +0530,
100,0,100,0,184.4171867,,184.37475359999985,5,184.4171867,184.4171867,0.026255599999785773,185.43379149999987,186.2709522,[-0.2513020833333333],[0.23307291666666666],[1],[0],[0],[1.8704067999999552],['target'],172101,001,2024-10-04_11h14.59.723,visual search task,2024.1.5,None,2024-10-04 11h15.07.519662 +0530,
101,0,101,0,186.3492408999998,,186.28133129999992,10,186.3492408999998,186.3492408999998,0.04180870000004688,187.38260649999984,189.98477679999996,[-0.4869791666666667],[-0.3033854166666667],[1],[0],[0],[3.662781799999948],['target'],172101,001,2024-10-04_11h14.59.723,visual search task,2024.1.5,None,2024-10-04 11h15.07.519662 +0530,
102,0,102,0,190.0659728999999,,189.99497199999996,5,190.0659728999999,190.0659728999999,0.04690249999998741,191.09941959999992,191.76871269999992,[0.4192708333333333],[-0.24739583333333334],[1],[0],[0],[1.728359699999828],['target'],172101,001,2024-10-04_11h14.59.723,visual search task,2024.1.5,None,2024-10-04 11h15.07.519662 +0530,
103,0,103,0,191.8494384999999,,191.77961679999999,5,191.8494384999999,191.8494384999999,0.04482359999997243,192.88258849999988,193.46783359999995,[0.3606770833333333],[-0.053385416666666664],[1],[0],[0],[1.6447789000001194],['target'],172101,001,2024-10-04_11h14.59.723,visual search task,2024.1.5,None,2024-10-04 11h15.07.519662 +0530,
104,0,104,0,193.56583179999984,,193.47654999999986,10,193.56583179999984,193.56583179999984,0.05840059999991354,194.56848719999994,195.4366688,[-0.3046875],[-0.2903645833333333],[1],[0],[0],[1.9027880999999525],['target'],172101,001,2024-10-04_11h14.59.723,visual search task,2024.1.5,None,2024-10-04 11h15.07.519662 +0530,
105,0,105,0,195.49944189999997,,195.44996459999993,5,195.49944189999997,195.49944189999997,0.03043200000001889,196.5174093999999,198.32047699999998,[0.4518229166666667],[0.2981770833333333],[1],[0],[0],[2.8425896999999622],['target'],172101,001,2024-10-04_11h14.59.723,visual search task,2024.1.5,None,2024-10-04 11h15.07.519662 +0530,
106,0,106,0,198.39910559999998,,198.33175899999992,10,198.39910559999998,198.39910559999998,0.044246199999861346,199.4323910999999,200.45287459999986,[-0.11197916666666667],[0.10286458333333333],[1],[0],[0],[2.079397100000051],['target'],172101,001,2024-10-04_11h14.59.723,visual search task,2024.1.5,None,2024-10-04 11h15.07.519662 +0530,
107,0,107,0,200.53666929999986,,200.46366949999992,10,200.53666929999986,200.53666929999986,0.04276249999998072,201.55122319999987,203.58672549999983,[0.24088541666666666],[-0.2643229166666667],[1],[0],[0],[3.0818375999999716],['target'],172101,001,2024-10-04_11h14.59.723,visual search task,2024.1.5,None,2024-10-04 11h15.07.519662 +0530,
108,0,108,0,203.66559689999985,,203.59921379999992,10,203.66559689999985,203.66559689999985,0.04500589999997828,204.68386529999998,205.8356663999998,[0.34375],[-0.23828125],[1],[0],[0],[2.193903999999975],['target'],172101,001,2024-10-04_11h14.59.723,visual search task,2024.1.5,None,2024-10-04 11h15.07.519662 +0530,
109,0,109,0,205.91581339999993,,205.8475613999999,5,205.91581339999993,205.91581339999993,0.04098670000007587,206.9322717,207.7861593,[0.20833333333333334],[-0.43359375],[1],[0],[0],[1.8991278000000875],['target'],172101,001,2024-10-04_11h14.59.723,visual search task,2024.1.5,None,2024-10-04 11h15.07.519662 +0530,
110,0,110,0,207.8487338,,207.79632159999983,5,207.8487338,207.8487338,0.029883499999868945,208.88248039999985,209.70290669999986,[-0.11979166666666667],[-0.4830729166666667],[1],[0],[0],[1.8781243000000813],['target'],172101,001,2024-10-04_11h14.59.723,visual search task,2024.1.5,None,2024-10-04 11h15.07.519662 +0530,
111,0,111,0,209.7516146999999,,209.71300999999994,5,209.7516146999999,209.7516146999999,0.027204499999925247,210.79903949999994,212.0690900999998,[0.453125],[-0.265625],[1],[0],[0],[2.330190700000003],['target'],172101,001,2024-10-04_11h14.59.723,visual search task,2024.1.5,None,2024-10-04 11h15.07.519662 +0530,
112,0,112,0,212.1484822,,212.07932519999986,10,212.1484822,212.1484822,0.04301190000001043,213.1655409,213.9024356,[-0.359375],[-0.3658854166666667],[1],[0],[0],[1.7815679999998792],['target'],172101,001,2024-10-04_11h14.59.723,visual search task,2024.1.5,None,2024-10-04 11h15.07.519662 +0530,
113,0,113,0,213.96818589999998,,213.91537949999997,5,213.96818589999998,213.96818589999998,0.04086050000000796,214.99979089999988,216.20262589999993,[-0.23828125],[0.10677083333333333],[1],[0],[0],[2.248554699999886],['target'],172101,001,2024-10-04_11h14.59.723,visual search task,2024.1.5,None,2024-10-04 11h15.07.519662 +0530,
114,0,114,0,216.25162149999983,,216.2129625,5,216.25162149999983,216.25162149999983,0.028051400000094873,217.29892659999996,218.03619879999997,[0.10026041666666667],[0.33203125],[1],[0],[0],[1.7965292999999747],['target'],172101,001,2024-10-04_11h14.59.723,visual search task,2024.1.5,None,2024-10-04 11h15.07.519662 +0530,
115,0,115,0,218.11524459999987,,218.04607839999994,10,218.11524459999987,218.11524459999987,0.043407399999978225,219.1343069999998,219.56713519999994,[0.20442708333333334],[0.328125],[1],[0],[0],[1.4790186000000176],['target'],172101,001,2024-10-04_11h14.59.723,visual search task,2024.1.5,None,2024-10-04 11h15.07.519662 +0530,
116,0,116,0,219.64824999999996,,219.5792391,10,219.64824999999996,219.64824999999996,0.04292410000016389,220.68204789999982,221.16877069999987,[-0.11197916666666667],[-0.12109375],[1],[0],[0],[1.5481079000001046],['target'],172101,001,2024-10-04_11h14.59.723,visual search task,2024.1.5,None,2024-10-04 11h15.07.519662 +0530,
117,0,117,0,221.214829,,221.17858819999992,5,221.214829,221.214829,0.023181700000122873,222.24889740000003,222.81902530000002,[-0.061197916666666664],[-0.08463541666666667],[1],[0],[0],[1.6181033000000298],['target'],172101,001,2024-10-04_11h14.59.723,visual search task,2024.1.5,None,2024-10-04 11h15.07.519662 +0530,
118,0,118,0,222.89812519999987,,222.8293024999998,10,222.89812519999987,222.89812519999987,0.04427499999997053,223.90251409999996,224.93553859999997,[0.359375],[-0.32421875],[1],[0],[0],[2.0634627999997974],['target'],172101,001,2024-10-04_11h14.59.723,visual search task,2024.1.5,None,2024-10-04 11h15.07.519662 +0530,
119,0,119,0,225.0314374999998,,224.94803789999992,10,225.0314374999998,225.0314374999998,0.048114000000168744,226.0487702999999,226.66877419999992,[-0.16666666666666666],[-0.10546875],[1],[0],[0],[1.674404400000185],['target'],172101,001,2024-10-04_11h14.59.723,visual search task,2024.1.5,None,2024-10-04 11h15.07.519662 +0530,
120,0,120,0,226.71643699999981,,226.68046359999994,5,226.71643699999981,226.71643699999981,0.024528499999860287,227.74858629999994,228.75236629999995,[-0.41796875],[-0.0078125],[1],[0],[0],[2.0486938000001373],['target'],172101,001,2024-10-04_11h14.59.723,visual search task,2024.1.5,None,2024-10-04 11h15.07.519662 +0530,
121,0,121,0,228.7980361,,228.7623827,5,228.7980361,228.7980361,0.02437129999998433,229.81519559999992,230.81837799999994,[0.4765625],[-0.09765625],[1],[0],[0],[2.032778199999939],['target'],172101,001,2024-10-04_11h14.59.723,visual search task,2024.1.5,None,2024-10-04 11h15.07.519662 +0530,
122,0,122,0,230.8979202999999,,230.82882189999987,10,230.8979202999999,230.8979202999999,0.04361180000000786,231.90232359999982,232.66980349999994,[0.4505208333333333],[0.3020833333333333],[1],[0],[0],[1.799093399999947],['target'],172101,001,2024-10-04_11h14.59.723,visual search task,2024.1.5,None,2024-10-04 11h15.07.519662 +0530,
123,0,123,0,232.73144789999992,,232.67690559999983,10,232.73144789999992,232.73144789999992,0.03773999999998523,233.7485104,234.93284089999997,[0.4856770833333333],[0.4908854166666667],[1],[0],[0],[2.2191055999999207],['target'],172101,001,2024-10-04_11h14.59.723,visual search task,2024.1.5,None,2024-10-04 11h15.07.519662 +0530,
124,0,124,0,234.98124519999988,,234.93834479999987,5,234.98124519999988,234.98124519999988,0.01930850000007922,236.01507500000002,236.91851589999987,[-0.3346354166666667],[0.2421875],[1],[0],[0],[1.9611463999999614],['target'],172101,001,2024-10-04_11h14.59.723,visual search task,2024.1.5,None,2024-10-04 11h15.07.519662 +0530,
125,0,125,0,237.014451,,236.9289687999999,10,237.014451,237.014451,0.04880800000000818,238.0482824999999,239.51729769999997,[0.07291666666666667],[0.5],[1],[0],[0],[2.5411514999998417],['target'],172101,001,2024-10-04_11h14.59.723,visual search task,2024.1.5,None,2024-10-04 11h15.07.519662 +0530,
126,0,126,0,239.58099189999984,,239.52303359999996,10,239.58099189999984,239.58099189999984,0.037756599999966056,240.6149304999999,241.41639209999994,[0.46484375],[0.265625],[1],[0],[0],[1.856101800000033],['target'],172101,001,2024-10-04_11h14.59.723,visual search task,2024.1.5,None,2024-10-04 11h15.07.519662 +0530,
127,0,127,0,241.46431639999992,,241.42187160000003,5,241.46431639999992,241.46431639999992,0.02023619999999937,242.49810890000003,243.40219879999995,[-0.2552083333333333],[0.03125],[1],[0],[0],[1.9603901000000405],['target'],172101,001,2024-10-04_11h14.59.723,visual search task,2024.1.5,None,2024-10-04 11h15.07.519662 +0530,
128,0,128,0,243.4808794999999,,243.41240589999984,10,243.4808794999999,243.4808794999999,0.04296189999990929,244.4996197999999,245.06748489999995,[-0.10546875],[-0.21223958333333334],[1],[0],[0],[1.61343480000005],['target'],172101,001,2024-10-04_11h14.59.723,visual search task,2024.1.5,None,2024-10-04 11h15.07.519662 +0530,
129,0,129,0,245.13474269999983,,245.07755989999987,10,245.13474269999983,245.13474269999983,0.041328399999883914,246.1495570999998,246.56895379999992,[0.3307291666666667],[-0.140625],[1],[0],[0],[1.4509037999998782],['target'],172101,001,2024-10-04_11h14.59.723,visual search task,2024.1.5,None,2024-10-04 11h15.07.519662 +0530,
130,0,130,0,246.63092110000002,,246.5749960999999,10,246.63092110000002,246.63092110000002,0.03624130000002879,247.64758949999987,248.8172236999999,[-0.4427083333333333],[0.19791666666666666],[1],[0],[0],[2.2065288000001146],['target'],172101,001,2024-10-04_11h14.59.723,visual search task,2024.1.5,None,2024-10-04 11h15.07.519662 +0530,
131,0,131,0,248.86421840000003,,248.82313869999984,5,248.86421840000003,248.86421840000003,0.02046110000014778,249.88116999999988,250.41794359999994,[-0.08854166666666667],[0.18619791666666666],[1],[0],[0],[1.5746818000000076],['target'],172101,001,2024-10-04_11h14.59.723,visual search task,2024.1.5,None,2024-10-04 11h15.07.519662 +0530,
132,0,132,0,250.48064909999994,,250.4281398999999,5,250.48064909999994,250.48064909999994,0.039226200000030076,251.49790409999991,252.33455819999995,[0.40625],[-0.2942708333333333],[1],[0],[0],[1.868897600000082],['target'],172101,001,2024-10-04_11h14.59.723,visual search task,2024.1.5,None,2024-10-04 11h15.07.519662 +0530,
133,0,133,0,252.38304909999988,,252.34466899999984,5,252.38304909999988,252.38304909999988,0.027126599999974133,253.41449879999982,254.21797619999984,[-0.00390625],[-0.3190104166666667],[1],[0],[0],[1.8475901000001613],['target'],172101,001,2024-10-04_11h14.59.723,visual search task,2024.1.5,None,2024-10-04 11h15.07.519662 +0530,
134,0,134,0,254.2661567,,254.22827009999992,5,254.2661567,254.2661567,0.02711120000003575,255.29781669999988,255.60122419999993,[-0.15234375],[0.3580729166666667],[1],[0],[0],[1.3471357000000808],['target'],172101,001,2024-10-04_11h14.59.723,visual search task,2024.1.5,None,2024-10-04 11h15.07.519662 +0530,
135,0,135,0,255.68053629999986,,255.61106109999992,10,255.68053629999986,255.68053629999986,0.04383570000004511,256.7143804,257.3858697999999,[0.17838541666666666],[0.23828125],[1],[0],[0],[1.7322704000000613],['target'],172101,001,2024-10-04_11h14.59.723,visual search task,2024.1.5,None,2024-10-04 11h15.07.519662 +0530,
136,0,136,0,257.4473017,,257.39074229999983,10,257.4473017,257.4473017,0.035570300000017596,258.48066419999986,259.36885689999986,[-0.3932291666666667],[-0.3619791666666667],[1],[0],[0],[1.9425006000001304],['target'],172101,001,2024-10-04_11h14.59.723,visual search task,2024.1.5,None,2024-10-04 11h15.07.519662 +0530,
137,0,137,0,259.44735489999994,,259.3790085999999,10,259.44735489999994,259.44735489999994,0.042962799999941126,260.4642337999999,260.76832019999983,[0.2994791666666667],[0.07291666666666667],[1],[0],[0],[1.347762399999965],['target'],172101,001,2024-10-04_11h14.59.723,visual search task,2024.1.5,None,2024-10-04 11h15.07.519662 +0530,
138,0,138,0,260.8304476999999,,260.7801955,5,260.8304476999999,260.8304476999999,0.028351799999882132,261.86441219999983,263.0674428,[-0.05078125],[0.4088541666666667],[1],[0],[0],[2.2610261000002083],['target'],172101,001,2024-10-04_11h14.59.723,visual search task,2024.1.5,None,2024-10-04 11h15.07.519662 +0530,
139,0,139,0,263.14721869999994,,263.0777054,10,263.14721869999994,263.14721869999994,0.04428649999999834,264.1485614999999,264.8345563999999,[-0.015625],[0.26953125],[1],[0],[0],[1.7137855999999374],['target'],172101,001,2024-10-04_11h14.59.723,visual search task,2024.1.5,None,2024-10-04 11h15.07.519662 +0530,
140,0,140,0,264.9137681999998,,264.84446660000003,10,264.9137681999998,264.9137681999998,0.03968990000021222,265.9305996999999,266.7194399,[0.22786458333333334],[0.4309895833333333],[1],[0],[0],[1.8370103999998264],['target'],172101,001,2024-10-04_11h14.59.723,visual search task,2024.1.5,None,2024-10-04 11h15.07.519662 +0530,
141,0,141,0,266.7970949999999,,266.72362539999995,10,266.7970949999999,266.7970949999999,0.03639699999985169,267.8307376,268.31567569999993,[0.06770833333333333],[0.296875],[1],[0],[0],[1.555616099999952],['target'],172101,001,2024-10-04_11h14.59.723,visual search task,2024.1.5,None,2024-10-04 11h15.07.519662 +0530,
142,0,142,0,268.3636245,,268.3212246999999,5,268.3636245,268.3636245,0.019761400000106732,269.3806139999999,270.28313230000003,[0.2526041666666667],[0.032552083333333336],[1],[0],[0],[1.9422737000002144],['target'],172101,001,2024-10-04_11h14.59.723,visual search task,2024.1.5,None,2024-10-04 11h15.07.519662 +0530,
143,0,143,0,270.3636626,,270.29335679999986,10,270.3636626,270.3636626,0.04494040000008681,271.3969365999999,271.75053779999985,[0.08203125],[0.16666666666666666],[1],[0],[0],[1.4134538999999222],['target'],172101,001,2024-10-04_11h14.59.723,visual search task,2024.1.5,None,2024-10-04 11h15.07.519662 +0530,
144,0,144,0,271.8170760999999,,271.7608786999999,10,271.8170760999999,271.8170760999999,0.040898700000070676,272.8487591999999,273.58431399999995,[0.3255208333333333],[0.2565104166666667],[1],[0],[0],[1.7839618999998947],['target'],172101,001,2024-10-04_11h14.59.723,visual search task,2024.1.5,None,2024-10-04 11h15.07.519662 +0530,
145,0,145,0,273.66351029999987,,273.5960739999998,10,273.66351029999987,273.66351029999987,0.0441588999999567,274.6967563999999,276.03553850000003,[-0.4375],[0.4739583333333333],[1],[0],[0],[2.39719429999991],['target'],172101,001,2024-10-04_11h14.59.723,visual search task,2024.1.5,None,2024-10-04 11h15.07.519662 +0530,
146,0,146,0,276.080007,,276.0399803,5,276.080007,276.080007,0.017702200000030643,277.1139418,277.7508172999999,[-0.33203125],[-0.38671875],[1],[0],[0],[1.6933111000000736],['target'],172101,001,2024-10-04_11h14.59.723,visual search task,2024.1.5,None,2024-10-04 11h15.07.519662 +0530,
147,0,147,0,277.8132215999999,,277.76112309999985,5,277.8132215999999,277.8132215999999,0.03577539999992041,278.8472270999998,279.55110979999995,[0.4947916666666667],[-0.23697916666666666],[1],[0],[0],[1.7554935000000569],['target'],172101,001,2024-10-04_11h14.59.723,visual search task,2024.1.5,None,2024-10-04 11h15.07.519662 +0530,
148,0,148,0,279.5997184999999,,279.56153359999985,5,279.5997184999999,279.5997184999999,0.02759739999987687,280.61348699999985,281.4826799,[-0.10026041666666667],[0.41796875],[1],[0],[0],[1.8950446000001193],['target'],172101,001,2024-10-04_11h14.59.723,visual search task,2024.1.5,None,2024-10-04 11h15.07.519662 +0530,
149,0,149,0,281.5318505,,281.4928854,5,281.5318505,281.5318505,0.027385600000116028,282.58029039999997,283.6840007999999,[-0.4309895833333333],[-0.3346354166666667],[1],[0],[0],[2.164859299999989],['target'],172101,001,2024-10-04_11h14.59.723,visual search task,2024.1.5,None,2024-10-04 11h15.07.519662 +0530,
150,0,150,0,283.7466459,,283.6943681,5,283.7466459,283.7466459,0.02923719999989771,284.76351929999987,285.03415629999995,[-0.014322916666666666],[0.4739583333333333],[1],[0],[0],[1.31204949999983],['target'],172101,001,2024-10-04_11h14.59.723,visual search task,2024.1.5,None,2024-10-04 11h15.07.519662 +0530,
151,0,151,0,285.08399710000003,,285.0444995999999,5,285.08399710000003,285.08399710000003,0.02788349999991624,286.1302218999999,286.26756869999986,[0.12239583333333333],[0.1328125],[1],[0],[0],[1.1967601000001196],['target'],172101,001,2024-10-04_11h14.59.723,visual search task,2024.1.5,None,2024-10-04 11h15.07.519662 +0530,
152,0,152,0,286.3163052,,286.277818,5,286.3163052,286.3163052,0.027941900000087116,287.3635747999999,288.0658136999998,[-0.026041666666666668],[-0.07291666666666667],[1],[0],[0],[1.7614453999999569],['target'],172101,001,2024-10-04_11h14.59.723,visual search task,2024.1.5,None,2024-10-04 11h15.07.519662 +0530,
153,0,153,0,288.163182,,288.0761901999999,10,288.163182,288.163182,0.061697899999899164,289.1797245,289.7663471999999,[0.09244791666666667],[0.14453125],[1],[0],[0],[1.6302184999999554],['target'],172101,001,2024-10-04_11h14.59.723,visual search task,2024.1.5,None,2024-10-04 11h15.07.519662 +0530,
154,0,154,0,289.86313829999995,,289.77817789999995,10,289.86313829999995,289.86313829999995,0.059970600000042396,290.86561359999996,291.41521620000003,[0.2526041666666667],[-0.27734375],[1],[0],[0],[1.578463499999998],['target'],172101,001,2024-10-04_11h14.59.723,visual search task,2024.1.5,None,2024-10-04 11h15.07.519662 +0530,
155,0,155,0,291.4796727999999,,291.4215417999999,10,291.4796727999999,291.4796727999999,0.03615810000019337,292.5129391999999,293.19968689999996,[-0.3424479166666667],[0.1171875],[1],[0],[0],[1.7426459000000705],['target'],172101,001,2024-10-04_11h14.59.723,visual search task,2024.1.5,None,2024-10-04 11h15.07.519662 +0530,
156,0,156,0,293.26281589999985,,293.2055126,10,293.26281589999985,293.26281589999985,0.03569899999979498,294.2964428999999,295.1979268,[-0.40625],[0.4153645833333333],[1],[0],[0],[1.957153000000062],['target'],172101,001,2024-10-04_11h14.59.723,visual search task,2024.1.5,None,2024-10-04 11h15.07.519662 +0530,
157,0,157,0,295.2324824,,295.2028642999999,5,295.2324824,295.2324824,0.018122100000027785,296.2799829999999,297.3989973,[-0.06901041666666667],[-0.2109375],[1],[0],[0],[2.1783003000000463],['target'],172101,001,2024-10-04_11h14.59.723,visual search task,2024.1.5,None,2024-10-04 11h15.07.519662 +0530,
158,0,158,0,297.4629901999999,,297.40974499999993,5,297.4629901999999,297.4629901999999,0.030762000000095213,298.4965247,299.04975979999995,[0.23828125],[0.21614583333333334],[1],[0],[0],[1.6108060999999907],['target'],172101,001,2024-10-04_11h14.59.723,visual search task,2024.1.5,None,2024-10-04 11h15.07.519662 +0530,
159,0,159,0,299.12967879999997,,299.05994209999994,10,299.12967879999997,299.12967879999997,0.04264659999989817,300.1461784999999,300.59883309999987,[-0.25],[0.13020833333333334],[1],[0],[0],[1.4976940999999897],['target'],172101,001,2024-10-04_11h14.59.723,visual search task,2024.1.5,None,2024-10-04 11h15.07.519662 +0530,
160,0,160,0,300.6625644999999,,300.6037283999999,10,300.6625644999999,300.6625644999999,0.03519489999985126,301.6797311999999,302.4986681999999,[-0.40625],[-0.057291666666666664],[1],[0],[0],[1.859796899999992],['target'],172101,001,2024-10-04_11h14.59.723,visual search task,2024.1.5,None,2024-10-04 11h15.07.519662 +0530,
161,0,161,0,302.5664422,,302.50952529999995,10,302.5664422,302.5664422,0.042041900000185706,303.59618249999994,304.1145042999999,[0.3098958333333333],[-0.059895833333333336],[1],[0],[0],[1.5648009000001366],['target'],172101,001,2024-10-04_11h14.59.723,visual search task,2024.1.5,None,2024-10-04 11h15.07.519662 +0530,
162,0,162,0,304.1791258999999,,304.1201289999999,10,304.1791258999999,304.1791258999999,0.03541840000002594,305.1961087999998,305.98390829999994,[0.375],[0.4088541666666667],[1],[0],[0],[1.8286791999998968],['target'],172101,001,2024-10-04_11h14.59.723,visual search task,2024.1.5,None,2024-10-04 11h15.07.519662 +0530,
163,0,163,0,306.02928139999995,,305.99386830000003,5,306.02928139999995,306.02928139999995,0.022292200000038065,307.046018,307.4180984999998,[-0.055989583333333336],[-0.3229166666666667],[1],[0],[0],[1.4031629000000976],['target'],172101,001,2024-10-04_11h14.59.723,visual search task,2024.1.5,None,2024-10-04 11h15.07.519662 +0530,
164,0,164,0,307.47898869999995,,307.4232456,10,307.47898869999995,307.47898869999995,0.03526420000002872,308.4810995999999,308.91472,[0.16796875],[-0.024739583333333332],[1],[0],[0],[1.456662499999993],['target'],172101,001,2024-10-04_11h14.59.723,visual search task,2024.1.5,None,2024-10-04 11h15.07.519662 +0530,
165,0,165,0,308.99617390000003,,308.9269142999999,10,308.99617390000003,308.99617390000003,0.045082500000035,310.01251549999984,310.69919979999986,[0.4140625],[-0.18229166666666666],[1],[0],[0],[1.7290023000000474],['target'],172101,001,2024-10-04_11h14.59.723,visual search task,2024.1.5,None,2024-10-04 11h15.07.519662 +0530,
166,0,166,0,310.7790525999999,,310.7114325,10,310.7790525999999,310.7790525999999,0.04408370000010109,311.7990176999999,311.9520531999999,[0.1875],[0.08984375],[1],[0],[0],[1.1984087999999247],['target'],172101,001,2024-10-04_11h14.59.723,visual search task,2024.1.5,None,2024-10-04 11h15.07.519662 +0530,
167,0,167,0,311.9957582999998,,311.95642079999993,5,311.9957582999998,311.9957582999998,0.017096499999979642,313.0296337,313.99942969999984,[-0.11458333333333333],[-0.4869791666666667],[1],[0],[0],[2.0259507999999187],['target'],172101,001,2024-10-04_11h14.59.723,visual search task,2024.1.5,None,2024-10-04 11h15.07.519662 +0530,
168,0,168,0,314.0481470999998,,314.00933869999994,5,314.0481470999998,314.0481470999998,0.027511099999856015,315.0794584,317.29936569999995,[-0.3333333333333333],[-0.4817708333333333],[1],[0],[0],[3.263916399999971],['target'],172101,001,2024-10-04_11h14.59.723,visual search task,2024.1.5,None,2024-10-04 11h15.07.519662 +0530,
169,0,169,0,317.3789158999998,,317.3093541999999,10,317.3789158999998,317.3789158999998,0.042742399999951886,318.3957083999999,318.9146541,[-0.11197916666666667],[0.4114583333333333],[1],[0],[0],[1.5639349999999013],['target'],172101,001,2024-10-04_11h14.59.723,visual search task,2024.1.5,None,2024-10-04 11h15.07.519662 +0530,
170,0,170,0,318.9787216999998,,318.92062839999994,10,318.9787216999998,318.9787216999998,0.036015600000155246,319.98140149999995,321.83208319999994,[0.026041666666666668],[-0.2630208333333333],[1],[0],[0],[2.8757104999999683],['target'],172101,001,2024-10-04_11h14.59.723,visual search task,2024.1.5,None,2024-10-04 11h15.07.519662 +0530,
171,0,171,0,321.8955501999999,,321.8442135999999,5,321.8955501999999,321.8955501999999,0.0280116999999791,322.91256169999997,323.24953689999984,[0.4192708333333333],[0.25],[1],[0],[0],[1.3788916000000881],['target'],172101,001,2024-10-04_11h14.59.723,visual search task,2024.1.5,None,2024-10-04 11h15.07.519662 +0530,
172,0,172,0,323.3286516999999,,323.2596414999998,10,323.3286516999999,323.3286516999999,0.04676119999999173,324.3623066,324.8976765,[0.3932291666666667],[-0.2578125],[1],[0],[0],[1.5927145000000564],['target'],172101,001,2024-10-04_11h14.59.723,visual search task,2024.1.5,None,2024-10-04 11h15.07.519662 +0530,
173,0,173,0,324.97871429999987,,324.91019069999993,10,324.97871429999987,324.97871429999987,0.0439209999999548,325.99555799999985,326.3497318,[0.3385416666666667],[0.12630208333333334],[1],[0],[0],[1.3972584000000552],['target'],172101,001,2024-10-04_11h14.59.723,visual search task,2024.1.5,None,2024-10-04 11h15.07.519662 +0530,
174,0,174,0,326.3954288,,326.35881059999997,5,326.3954288,326.3954288,0.02492819999997664,327.4291860999999,327.86472979999985,[0.22265625],[0.15494791666666666],[1],[0],[0],[1.4819866000000275],['target'],172101,001,2024-10-04_11h14.59.723,visual search task,2024.1.5,None,2024-10-04 11h15.07.519662 +0530,
175,0,175,0,327.9157671999999,,327.8751193999999,5,327.9157671999999,327.9157671999999,0.03008599999998296,328.9623460999999,329.56560479999985,[0.3450520833333333],[0.3098958333333333],[1],[0],[0],[1.6618963999999323],['target'],172101,001,2024-10-04_11h14.59.723,visual search task,2024.1.5,None,2024-10-04 11h15.07.519662 +0530,
176,0,176,0,329.6118127999998,,329.5758931999999,5,329.6118127999998,329.6118127999998,0.02540620000013405,330.61470829999985,331.9323376,[-0.2721354166666667],[-0.3776041666666667],[1],[0],[0],[2.33240069999988],['target'],172101,001,2024-10-04_11h14.59.723,visual search task,2024.1.5,None,2024-10-04 11h15.07.519662 +0530,
177,0,177,0,332.0120259999999,,331.9430169,10,332.0120259999999,332.0120259999999,0.046512800000073184,333.04562869999995,333.4475975999999,[0.22005208333333334],[0.09114583333333333],[1],[0],[0],[1.459948299999951],['target'],172101,001,2024-10-04_11h14.59.723,visual search task,2024.1.5,None,2024-10-04 11h15.07.519662 +0530,
178,0,178,0,333.528362,,333.4593757,10,333.528362,333.528362,0.04322039999988192,334.54533279999987,335.1654283999999,[-0.4947916666666667],[-0.15494791666666666],[1],[0],[0],[1.6641524000001482],['target'],172101,001,2024-10-04_11h14.59.723,visual search task,2024.1.5,None,2024-10-04 11h15.07.519662 +0530,
179,0,179,0,335.21631479999996,,335.1774713,5,335.21631479999996,335.21631479999996,0.027077699999836113,336.2620764999999,336.8180912999999,[0.27734375],[-0.21223958333333334],[1],[0],[0],[1.6152153999998973],['target'],172101,001,2024-10-04_11h14.59.723,visual search task,2024.1.5,None,2024-10-04 11h15.07.519662 +0530,
180,0,180,0,336.87871569999993,,336.8231739999999,5,336.87871569999993,336.87871569999993,0.03065870000000359,337.91256299999986,338.2158322999999,[-0.43359375],[0.13671875],[1],[0],[0],[1.362154099999998],['target'],172101,001,2024-10-04_11h14.59.723,visual search task,2024.1.5,None,2024-10-04 11h15.07.519662 +0530,
181,0,181,0,338.2948210999998,,338.22614239999984,10,338.2948210999998,338.2948210999998,0.042854399999896486,339.3284881999998,339.7484829,[-0.390625],[-0.3138020833333333],[1],[0],[0],[1.4809677000000647],['target'],172101,001,2024-10-04_11h14.59.723,visual search task,2024.1.5,None,2024-10-04 11h15.07.519662 +0530,
182,0,182,0,339.8114492999998,,339.75641229999997,10,339.8114492999998,339.8114492999998,0.037037499999996726,340.82992709999985,341.93187999999986,[0.34765625],[-0.3177083333333333],[1],[0],[0],[2.138988100000006],['target'],172101,001,2024-10-04_11h14.59.723,visual search task,2024.1.5,None,2024-10-04 11h15.07.519662 +0530,
183,0,183,0,342.0114464999999,,341.9423732999999,10,342.0114464999999,342.0114464999999,0.042348500000116474,343.0284807999999,343.2138688,[-0.4557291666666667],[-0.02734375],[1],[0],[0],[1.2305410999999822],[],172101,001,2024-10-04_11h14.59.723,visual search task,2024.1.5,None,2024-10-04 11h15.07.519662 +0530,
184,0,184,0,343.26146619999986,,343.22149089999994,5,343.26146619999986,343.26146619999986,0.02187550000007832,344.2952736,344.8485541,[0.2708333333333333],[0.1171875],[1],[0],[0],[1.6058839999998327],['target'],172101,001,2024-10-04_11h14.59.723,visual search task,2024.1.5,None,2024-10-04 11h15.07.519662 +0530,
185,0,185,0,344.8979393999998,,344.8587891999998,5,344.8979393999998,344.8979393999998,0.028781900000012683,345.94512729999997,346.99836029999983,[0.4596354166666667],[-0.4518229166666667],[1],[0],[0],[2.1121716000000106],['target'],172101,001,2024-10-04_11h14.59.723,visual search task,2024.1.5,None,2024-10-04 11h15.07.519662 +0530,
186,0,186,0,347.0478745999999,,347.00871489999986,5,347.0478745999999,347.0478745999999,0.028052799999841227,348.0784076,348.4485680999999,[-0.1171875],[0.27734375],[1],[0],[0],[1.4133222000000387],['target'],172101,001,2024-10-04_11h14.59.723,visual search task,2024.1.5,None,2024-10-04 11h15.07.519662 +0530,
187,0,187,0,348.4968675,,348.45893,5,348.4968675,348.4968675,0.026827599999933227,349.528468,350.11564369999996,[-0.05859375],[-0.30859375],[1],[0],[0],[1.6313315999998395],['target'],172101,001,2024-10-04_11h14.59.723,visual search task,2024.1.5,None,2024-10-04 11h15.07.519662 +0530,
188,0,188,0,350.19456479999985,,350.1259757,10,350.19456479999985,350.19456479999985,0.04448440000010123,351.2280748999999,351.6672438999999,[0.11067708333333333],[-0.10807291666666667],[1],[0],[0],[1.4983007999999245],['target'],172101,001,2024-10-04_11h14.59.723,visual search task,2024.1.5,None,2024-10-04 11h15.07.519662 +0530,
189,0,189,0,351.7111247999999,,351.6719753,5,351.7111247999999,351.7111247999999,0.01830070000005435,352.7114454,353.8154583999999,[0.3450520833333333],[-0.10546875],[1],[0],[0],[2.125330500000018],['target'],172101,001,2024-10-04_11h14.59.723,visual search task,2024.1.5,None,2024-10-04 11h15.07.519662 +0530,
190,0,190,0,353.89459079999983,,353.8255921,10,353.89459079999983,353.89459079999983,0.052652699999953256,354.9114327,355.39699389999987,[-0.39453125],[-0.3307291666666667],[1],[0],[0],[1.5201990000000478],['target'],172101,001,2024-10-04_11h14.59.723,visual search task,2024.1.5,None,2024-10-04 11h15.07.519662 +0530,
191,0,191,0,355.44744649999984,,355.40886969999997,5,355.44744649999984,355.44744649999984,0.02821959999982937,356.4948181,356.63230869999984,[-0.3229166666666667],[-0.14583333333333334],[1],[0],[0],[1.196876599999996],['target'],172101,001,2024-10-04_11h14.59.723,visual search task,2024.1.5,None,2024-10-04 11h15.07.519662 +0530,
192,0,192,0,356.67749609999987,,356.6418669999998,5,356.67749609999987,356.67749609999987,0.024077100000113205,357.69486340000003,358.33139489999985,[-0.12760416666666666],[0.3294270833333333],[1],[0],[0],[1.6664249999998901],['target'],172101,001,2024-10-04_11h14.59.723,visual search task,2024.1.5,None,2024-10-04 11h15.07.519662 +0530,
193,0,193,0,358.4109472,,358.3414894,10,358.4109472,358.4109472,0.04438370000002578,359.44466349999993,359.7804325999998,[0.4466145833333333],[0.14453125],[1],[0],[0],[1.3959631000000172],['target'],172101,001,2024-10-04_11h14.59.723,visual search task,2024.1.5,None,2024-10-04 11h15.07.519662 +0530,
194,0,194,0,359.8298115,,359.7905237,5,359.8298115,359.8298115,0.027838900000006106,360.8614508999999,361.5485807,[-0.0234375],[-0.19140625],[1],[0],[0],[1.7315238000001045],['target'],172101,001,2024-10-04_11h14.59.723,visual search task,2024.1.5,None,2024-10-04 11h15.07.519662 +0530,
195,0,195,0,361.61108409999997,,361.5586916999998,5,361.61108409999997,361.61108409999997,0.030353000000104657,362.64482529999987,362.91528589999984,[0.11197916666666667],[0.4713541666666667],[1],[0],[0],[1.3273432000000867],['target'],172101,001,2024-10-04_11h14.59.723,visual search task,2024.1.5,None,2024-10-04 11h15.07.519662 +0530,
196,0,196,0,363.0109061999999,,362.9255229999999,10,363.0109061999999,363.0109061999999,0.044093900000007125,364.02758670000003,364.38150769999993,[-0.037760416666666664],[0.15755208333333334],[1],[0],[0],[1.4132503000000725],['target'],172101,001,2024-10-04_11h14.59.723,visual search task,2024.1.5,None,2024-10-04 11h15.07.519662 +0530,
197,0,197,0,364.4273768999999,,364.3915453999998,5,364.4273768999999,364.4273768999999,0.024323499999809428,365.42812149999986,365.96476229999985,[0.3072916666666667],[0.026041666666666668],[1],[0],[0],[1.5501785000001291],['target'],172101,001,2024-10-04_11h14.59.723,visual search task,2024.1.5,None,2024-10-04 11h15.07.519662 +0530,
198,0,198,0,366.0145064999999,,365.97557069999993,5,366.0145064999999,366.0145064999999,0.027962200000047233,367.0612902999999,367.93030469999985,[0.0625],[-0.41796875],[1],[0],[0],[1.9283181000000695],['target'],172101,001,2024-10-04_11h14.59.723,visual search task,2024.1.5,None,2024-10-04 11h15.07.519662 +0530,
199,0,199,0,367.9942509,,367.9404525,5,367.9942509,367.9942509,0.031134500000007392,369.0277813,369.74813329999984,[-0.17447916666666666],[0.2890625],[1],[0],[0],[1.7778771000000688],['target'],172101,001,2024-10-04_11h14.59.723,visual search task,2024.1.5,None,2024-10-04 11h15.07.519662 +0530,
