trials.thisRepN,trials.thisTrialN,trials.thisN,trials.thisIndex,thisRow.t,notes,trial.started,num_distr,fixation.started,target.started,mouse.started,fixation.stopped,trial.stopped,mouse.x,mouse.y,mouse.leftButton,mouse.midButton,mouse.rightButton,mouse.time,mouse.clicked_name,participant,session,date,expName,psychopyVersion,frameRate,expStart,
0,0,0,0,0.22258349999992788,,0.029593999999633525,10,0.22258349999992788,0.22258349999992788,0.12277530000028491,1.2543598999995993,2.80354269999998,[-0.1640625],[-0.20963541666666666],[1],[0],[0],[2.684769299999971],['target'],237628,001,2024-10-04_11h54.56.695,visual search task,2024.1.5,None,2024-10-04 11h55.07.104005 +0530,
1,0,1,0,3.188334699999814,,2.8133286999996017,10,3.188334699999814,3.188334699999814,0.3478500000001077,4.2210229999996045,4.68955939999978,[0.10416666666666667],[0.052083333333333336],[1],[0],[0],[1.5290795000000799],[],237628,001,2024-10-04_11h54.56.695,visual search task,2024.1.5,None,2024-10-04 11h55.07.104005 +0530,
2,0,2,0,4.788368999999875,,4.6967179999996915,10,4.788368999999875,4.788368999999875,0.05080499999985477,5.821057399999972,7.189984599999661,[0.20572916666666666],[-0.43359375],[1],[0],[0],[2.443061999999827],['target'],237628,001,2024-10-04_11h54.56.695,visual search task,2024.1.5,None,2024-10-04 11h55.07.104005 +0530,
3,0,3,0,7.271031799999946,,7.195559299999786,10,7.271031799999946,7.271031799999946,0.046492400000261114,8.304161399999884,8.539415599999757,[-0.17708333333333334],[0.21354166666666666],[1],[0],[0],[1.2979424999998628],['target'],237628,001,2024-10-04_11h54.56.695,visual search task,2024.1.5,None,2024-10-04 11h55.07.104005 +0530,
4,0,4,0,8.63819889999968,,8.547104299999774,10,8.63819889999968,8.63819889999968,0.06238099999973201,9.671046499999647,10.505975899999612,[0.09895833333333333],[-0.046875],[1],[0],[0],[1.897551300000032],[],237628,001,2024-10-04_11h54.56.695,visual search task,2024.1.5,None,2024-10-04 11h55.07.104005 +0530,
5,0,5,0,10.553970399999798,,10.51166559999956,5,10.553970399999798,10.553970399999798,0.025284599999849888,11.570880599999782,12.373149499999727,[0.4765625],[0.22005208333333334],[1],[0],[0],[1.836810499999956],['target'],237628,001,2024-10-04_11h54.56.695,visual search task,2024.1.5,None,2024-10-04 11h55.07.104005 +0530,
6,0,6,0,12.471492399999988,,12.379162899999756,10,12.471492399999988,12.471492399999988,0.05482189999975162,13.504204999999729,14.305236899999727,[-0.4713541666666667],[-0.0703125],[1],[0],[0],[1.8721001999997497],['target'],237628,001,2024-10-04_11h54.56.695,visual search task,2024.1.5,None,2024-10-04 11h55.07.104005 +0530,
7,0,7,0,14.354920399999628,,14.31075439999995,5,14.354920399999628,14.354920399999628,0.02440649999971356,15.370544599999903,15.788876799999798,[0.0546875],[-0.10546875],[1],[0],[0],[1.4542731999999887],['target'],237628,001,2024-10-04_11h54.56.695,visual search task,2024.1.5,None,2024-10-04 11h55.07.104005 +0530,
8,0,8,0,15.870782499999677,,15.794609099999889,10,15.870782499999677,15.870782499999677,0.051078599999982544,16.903892899999846,17.938659599999937,[0.4036458333333333],[0.30078125],[1],[0],[0],[2.093699999999899],['target'],237628,001,2024-10-04_11h54.56.695,visual search task,2024.1.5,None,2024-10-04 11h55.07.104005 +0530,
9,0,9,0,18.0212161999998,,17.944192399999793,10,18.0212161999998,18.0212161999998,0.04961929999990389,19.053764499999943,19.955820899999708,[0.16536458333333334],[-0.20833333333333334],[1],[0],[0],[1.9626630000002478],['target'],237628,001,2024-10-04_11h54.56.695,visual search task,2024.1.5,None,2024-10-04 11h55.07.104005 +0530,
10,0,10,0,20.00387079999973,,19.960111399999732,5,20.00387079999973,20.00387079999973,0.01996289999988221,21.02046889999974,21.556225899999845,[-0.2890625],[0.3203125],[1],[0],[0],[1.5763417000002846],['target'],237628,001,2024-10-04_11h54.56.695,visual search task,2024.1.5,None,2024-10-04 11h55.07.104005 +0530,
11,0,11,0,21.65459189999956,,21.56191009999975,10,21.65459189999956,21.65459189999956,0.053798899999947025,22.687106499999572,22.822087799999736,[-0.2421875],[0.037760416666666664],[1],[0],[0],[1.206849599999714],['target'],237628,001,2024-10-04_11h54.56.695,visual search task,2024.1.5,None,2024-10-04 11h55.07.104005 +0530,
12,0,12,0,22.887060199999723,,22.828698799999984,5,22.887060199999723,22.887060199999723,0.02767379999977493,23.88706239999965,23.92248219999965,[-0.2591145833333333],[0.014322916666666666],[1],[0],[0],[1.0668298000000505],['target'],237628,001,2024-10-04_11h54.56.695,visual search task,2024.1.5,None,2024-10-04 11h55.07.104005 +0530,
13,0,13,0,24.02124399999957,,23.929944499999692,10,24.02124399999957,24.02124399999957,0.06030379999992874,25.053720399999747,25.688697799999773,[0.12890625],[-0.08203125],[1],[0],[0],[1.6995546000002832],['target'],237628,001,2024-10-04_11h54.56.695,visual search task,2024.1.5,None,2024-10-04 11h55.07.104005 +0530,
14,0,14,0,25.787649899999906,,25.695055299999694,10,25.787649899999906,25.787649899999906,0.05421100000012302,26.82071589999987,27.9894433999998,[-0.2877604166666667],[-0.3619791666666667],[1],[0],[0],[2.2410970000000816],['target'],237628,001,2024-10-04_11h54.56.695,visual search task,2024.1.5,None,2024-10-04 11h55.07.104005 +0530,
15,0,15,0,28.087703399999555,,27.99607429999969,10,28.087703399999555,28.087703399999555,0.05705470000020796,29.10360249999985,29.506404299999758,[0.08203125],[0.13411458333333334],[1],[0],[0],[1.4541260999999395],['target'],237628,001,2024-10-04_11h54.56.695,visual search task,2024.1.5,None,2024-10-04 11h55.07.104005 +0530,
16,0,16,0,29.570199699999648,,29.512913099999878,5,29.570199699999648,29.570199699999648,0.02660779999996521,30.586703199999647,31.921787199999926,[-0.13541666666666666],[0.4453125],[1],[0],[0],[2.3830786999997144],['target'],237628,001,2024-10-04_11h54.56.695,visual search task,2024.1.5,None,2024-10-04 11h55.07.104005 +0530,
17,0,17,0,32.004343999999946,,31.92779399999972,10,32.004343999999946,32.004343999999946,0.0487183999998706,33.03677639999978,33.63915589999988,[-0.4309895833333333],[0.10807291666666667],[1],[0],[0],[1.663202100000035],['target'],237628,001,2024-10-04_11h54.56.695,visual search task,2024.1.5,None,2024-10-04 11h55.07.104005 +0530,
18,0,18,0,33.68668489999982,,33.644517899999755,5,33.68668489999982,33.68668489999982,0.023644100000183244,34.70321779999995,35.03928259999975,[0.1796875],[0.3984375],[1],[0],[0],[1.3716730000001007],['target'],237628,001,2024-10-04_11h54.56.695,visual search task,2024.1.5,None,2024-10-04 11h55.07.104005 +0530,
19,0,19,0,35.08648809999977,,35.04664189999994,5,35.08648809999977,35.08648809999977,0.022619399999712186,36.086539399999765,36.42180359999975,[0.18359375],[0.053385416666666664],[1],[0],[0],[1.3533355999998093],['target'],237628,001,2024-10-04_11h54.56.695,visual search task,2024.1.5,None,2024-10-04 11h55.07.104005 +0530,
20,0,20,0,36.48655739999958,,36.42599139999993,10,36.48655739999958,36.48655739999958,0.03546300000016345,37.51993319999974,37.855811599999925,[0.22005208333333334],[0.2708333333333333],[1],[0],[0],[1.3946628999997301],['target'],237628,001,2024-10-04_11h54.56.695,visual search task,2024.1.5,None,2024-10-04 11h55.07.104005 +0530,
21,0,21,0,37.92064809999965,,37.86209659999986,5,37.92064809999965,37.92064809999965,0.025813299999754236,38.91983499999969,39.53831809999974,[-0.3111979166666667],[0.10807291666666667],[1],[0],[0],[1.6512244999998984],['target'],237628,001,2024-10-04_11h54.56.695,visual search task,2024.1.5,None,2024-10-04 11h55.07.104005 +0530,
22,0,22,0,39.60320159999992,,39.54412109999976,5,39.60320159999992,39.60320159999992,0.02671749999990425,,40.48886739999989,[-0.3828125],[0.14322916666666666],[1],[0],[0],[0.918813499999942],['target'],237628,001,2024-10-04_11h54.56.695,visual search task,2024.1.5,None,2024-10-04 11h55.07.104005 +0530,
23,0,23,0,40.570827299999564,,40.49453679999988,10,40.570827299999564,40.570827299999564,0.049165200000061304,41.60325339999963,42.67156369999975,[0.18359375],[-0.0625],[1],[0],[0],[2.128509699999995],[],237628,001,2024-10-04_11h54.56.695,visual search task,2024.1.5,None,2024-10-04 11h55.07.104005 +0530,
24,0,24,0,42.75325429999975,,42.67707809999956,10,42.75325429999975,42.75325429999975,0.04892539999991641,43.78644539999959,44.02139499999976,[-0.25],[-0.048177083333333336],[1],[0],[0],[1.296128999999837],['target'],237628,001,2024-10-04_11h54.56.695,visual search task,2024.1.5,None,2024-10-04 11h55.07.104005 +0530,
25,0,25,0,44.08710919999976,,44.0267160999997,5,44.08710919999976,44.08710919999976,0.026692200000070443,45.119733,46.922055799999725,[0.22916666666666666],[-0.375],[1],[0],[0],[2.8692555000002358],['target'],237628,001,2024-10-04_11h54.56.695,visual search task,2024.1.5,None,2024-10-04 11h55.07.104005 +0530,
26,0,26,0,47.02045309999994,,46.92832229999976,10,47.02045309999994,47.02045309999994,0.057296299999961775,48.05313929999966,48.55448249999972,[0.3216145833333333],[-0.2526041666666667],[1],[0],[0],[1.569909800000005],['target'],237628,001,2024-10-04_11h54.56.695,visual search task,2024.1.5,None,2024-10-04 11h55.07.104005 +0530,
27,0,27,0,48.60302429999956,,48.56032349999987,5,48.60302429999956,48.60302429999956,0.025646700000379496,49.619539799999984,49.8217709999999,[-0.3151041666666667],[-0.18619791666666666],[1],[0],[0],[1.2365006999998513],[],237628,001,2024-10-04_11h54.56.695,visual search task,2024.1.5,None,2024-10-04 11h55.07.104005 +0530,
28,0,28,0,49.869579299999714,,49.82743859999982,5,49.869579299999714,49.869579299999714,0.025023300000157178,50.88606109999955,51.35381139999981,[-0.4375],[-0.18359375],[1],[0],[0],[1.5021710000000894],['target'],237628,001,2024-10-04_11h54.56.695,visual search task,2024.1.5,None,2024-10-04 11h55.07.104005 +0530,
29,0,29,0,51.41946589999998,,51.35817019999968,10,51.41946589999998,51.41946589999998,0.034300599999824044,52.453130899999906,53.12129139999979,[0.33984375],[-0.014322916666666666],[1],[0],[0],[1.729055100000096],['target'],237628,001,2024-10-04_11h54.56.695,visual search task,2024.1.5,None,2024-10-04 11h55.07.104005 +0530,
30,0,30,0,53.22031399999969,,53.12862919999998,10,53.22031399999969,53.22031399999969,0.05559309999989637,54.25288889999956,55.22091589999991,[-0.23567708333333334],[0.3802083333333333],[1],[0],[0],[2.037565099999938],['target'],237628,001,2024-10-04_11h54.56.695,visual search task,2024.1.5,None,2024-10-04 11h55.07.104005 +0530,
31,0,31,0,55.3027904999999,,55.22618799999964,10,55.3027904999999,55.3027904999999,0.04530560000011974,56.33618199999955,56.53890539999975,[-0.20442708333333334],[0.2643229166666667],[1],[0],[0],[1.2679972000000816],[],237628,001,2024-10-04_11h54.56.695,visual search task,2024.1.5,None,2024-10-04 11h55.07.104005 +0530,
32,0,32,0,56.62002319999965,,56.544381699999576,10,56.62002319999965,56.62002319999965,0.045741500000076485,57.65267959999983,58.02142509999976,[0.4388020833333333],[-0.2513020833333333],[1],[0],[0],[1.4318982999998298],['target'],237628,001,2024-10-04_11h54.56.695,visual search task,2024.1.5,None,2024-10-04 11h55.07.104005 +0530,
33,0,33,0,58.12030199999981,,58.02836309999975,10,58.12030199999981,58.12030199999981,0.05950120000034076,59.1526644999999,59.98845809999966,[0.1484375],[0.12109375],[1],[0],[0],[1.9019413999999415],['target'],237628,001,2024-10-04_11h54.56.695,visual search task,2024.1.5,None,2024-10-04 11h55.07.104005 +0530,
34,0,34,0,60.06926899999962,,59.99363349999976,10,60.06926899999962,60.06926899999962,0.03916029999982129,61.102586399999836,62.17189619999999,[-0.06640625],[0.24479166666666666],[1],[0],[0],[2.139610199999879],['target'],237628,001,2024-10-04_11h54.56.695,visual search task,2024.1.5,None,2024-10-04 11h55.07.104005 +0530,
35,0,35,0,62.25334389999989,,62.176472099999955,10,62.25334389999989,62.25334389999989,0.04052239999964513,63.2859040999997,64.15411649999987,[-0.3971354166666667],[0.13671875],[1],[0],[0],[1.9375146999996105],[],237628,001,2024-10-04_11h54.56.695,visual search task,2024.1.5,None,2024-10-04 11h55.07.104005 +0530,
36,0,36,0,64.23588239999981,,64.1593785,10,64.23588239999981,64.23588239999981,0.04604139999992185,65.26911239999981,66.57132199999978,[0.3515625],[-0.4283854166666667],[1],[0],[0],[2.366552899999988],['target'],237628,001,2024-10-04_11h54.56.695,visual search task,2024.1.5,None,2024-10-04 11h55.07.104005 +0530,
37,0,37,0,66.65313309999965,,66.57672649999995,10,66.65313309999965,66.65313309999965,0.04517550000036863,67.68577449999975,69.22125629999982,[-0.0703125],[0.21875],[1],[0],[0],[2.600087799999983],[],237628,001,2024-10-04_11h54.56.695,visual search task,2024.1.5,None,2024-10-04 11h55.07.104005 +0530,
38,0,38,0,69.26892709999993,,69.22666459999982,5,69.26892709999993,69.26892709999993,0.02340749999984837,70.3027275999998,71.62020499999971,[-0.24348958333333334],[-0.4140625],[1],[0],[0],[2.370816599999671],['target'],237628,001,2024-10-04_11h54.56.695,visual search task,2024.1.5,None,2024-10-04 11h55.07.104005 +0530,
39,0,39,0,71.70291959999986,,71.62569429999985,10,71.70291959999986,71.70291959999986,0.04557569999997213,72.73564599999963,73.00418659999968,[-0.09895833333333333],[-0.36328125],[1],[0],[0],[1.3335489000000962],[],237628,001,2024-10-04_11h54.56.695,visual search task,2024.1.5,None,2024-10-04 11h55.07.104005 +0530,
40,0,40,0,73.0863433999998,,73.01367089999985,5,73.0863433999998,73.0863433999998,0.035974300000361836,74.10219049999978,74.3564766999998,[-0.4010416666666667],[-0.3372395833333333],[1],[0],[0],[1.3079038999999284],['target'],237628,001,2024-10-04_11h54.56.695,visual search task,2024.1.5,None,2024-10-04 11h55.07.104005 +0530,
41,0,41,0,74.43637579999995,,74.36572159999969,5,74.43637579999995,74.43637579999995,0.039530300000024,75.43544899999961,75.58737209999981,[-0.14192708333333334],[-0.3997395833333333],[1],[0],[0],[1.1834868000000824],['target'],237628,001,2024-10-04_11h54.56.695,visual search task,2024.1.5,None,2024-10-04 11h55.07.104005 +0530,
42,0,42,0,75.66945549999991,,75.5928270999998,10,75.66945549999991,75.66945549999991,0.04512949999980265,76.70212039999979,77.2367849999996,[0.17708333333333334],[-0.25],[1],[0],[0],[1.5995680999999422],['target'],237628,001,2024-10-04_11h54.56.695,visual search task,2024.1.5,None,2024-10-04 11h55.07.104005 +0530,
43,0,43,0,77.30208739999989,,77.2419602,10,77.30208739999989,77.30208739999989,0.03638230000024123,78.3358561,78.95369609999989,[-0.3229166666666667],[0.14583333333333334],[1],[0],[0],[1.6759715999996843],[],237628,001,2024-10-04_11h54.56.695,visual search task,2024.1.5,None,2024-10-04 11h55.07.104005 +0530,
44,0,44,0,79.00203339999962,,78.95891719999963,5,79.00203339999962,79.00203339999962,0.022803899999871646,80.01887379999971,80.4868234999999,[0.4140625],[0.0234375],[1],[0],[0],[1.5056903999998212],['target'],237628,001,2024-10-04_11h54.56.695,visual search task,2024.1.5,None,2024-10-04 11h55.07.104005 +0530,
45,0,45,0,80.53531389999989,,80.49225469999965,5,80.53531389999989,80.53531389999989,0.02390719999993962,81.56919659999994,82.12875339999982,[-0.061197916666666664],[-0.21875],[1],[0],[0],[1.612593199999992],['target'],237628,001,2024-10-04_11h54.56.695,visual search task,2024.1.5,None,2024-10-04 11h55.07.104005 +0530,
46,0,46,0,82.20307169999978,,82.13841749999983,5,82.20307169999978,82.20307169999978,0.03506470000002082,83.21871889999966,84.40454829999999,[-0.16276041666666666],[0.43359375],[1],[0],[0],[2.2321835000002466],['target'],237628,001,2024-10-04_11h54.56.695,visual search task,2024.1.5,None,2024-10-04 11h55.07.104005 +0530,
47,0,47,0,84.46863669999993,,84.41221059999998,5,84.46863669999993,84.46863669999993,0.033650100000159,85.48522349999985,86.65410959999963,[0.3723958333333333],[0.19140625],[1],[0],[0],[2.2095752000000175],['target'],237628,001,2024-10-04_11h54.56.695,visual search task,2024.1.5,None,2024-10-04 11h55.07.104005 +0530,
48,0,48,0,86.75258759999997,,86.6599013,10,86.75258759999997,86.75258759999997,0.05299749999994674,87.78541209999958,88.85369519999995,[0.3020833333333333],[0.13541666666666666],[1],[0],[0],[2.1414459000002353],['target'],237628,001,2024-10-04_11h54.56.695,visual search task,2024.1.5,None,2024-10-04 11h55.07.104005 +0530,
49,0,49,0,88.9183235999999,,88.8591763999998,10,88.9183235999999,88.9183235999999,0.03545040000017252,89.95168459999968,90.95326139999997,[-0.4505208333333333],[0.4309895833333333],[1],[0],[0],[2.0592758999996477],['target'],237628,001,2024-10-04_11h54.56.695,visual search task,2024.1.5,None,2024-10-04 11h55.07.104005 +0530,
50,0,50,0,91.0189561999996,,90.9591848,10,91.0189561999996,91.0189561999996,0.038373699999738164,92.0518033999997,92.85355699999991,[-0.3333333333333333],[0.22135416666666666],[1],[0],[0],[1.856811800000287],['target'],237628,001,2024-10-04_11h54.56.695,visual search task,2024.1.5,None,2024-10-04 11h55.07.104005 +0530,
51,0,51,0,92.95236409999961,,92.86017689999971,10,92.95236409999961,92.95236409999961,0.05520479999995587,93.96850389999963,97.25668309999992,[-0.15364583333333334],[-0.15364583333333334],[1],[0],[0],[4.341761200000292],[],237628,001,2024-10-04_11h54.56.695,visual search task,2024.1.5,None,2024-10-04 11h55.07.104005 +0530,
52,0,52,0,97.3517308999999,,97.26675759999989,10,97.3517308999999,97.3517308999999,0.058787800000118295,98.3848152999999,99.05356169999959,[0.12239583333333333],[-0.14322916666666666],[1],[0],[0],[1.729887399999825],['target'],237628,001,2024-10-04_11h54.56.695,visual search task,2024.1.5,None,2024-10-04 11h55.07.104005 +0530,
53,0,53,0,99.10138619999998,,99.0590457999997,5,99.10138619999998,99.10138619999998,0.023265700000138168,100.11800259999973,101.0035453999999,[0.19401041666666666],[-0.2825520833333333],[1],[0],[0],[1.921939399999701],['target'],237628,001,2024-10-04_11h54.56.695,visual search task,2024.1.5,None,2024-10-04 11h55.07.104005 +0530,
54,0,54,0,101.08540809999977,,101.00890319999962,10,101.08540809999977,101.08540809999977,0.045364799999788374,102.11803959999997,102.35265729999992,[0.052083333333333336],[0.04296875],[1],[0],[0],[1.299112199999854],[],237628,001,2024-10-04_11h54.56.695,visual search task,2024.1.5,None,2024-10-04 11h55.07.104005 +0530,
55,0,55,0,102.43466129999979,,102.35843599999998,10,102.43466129999979,102.43466129999979,0.044619699999657314,103.46809499999972,104.10294159999967,[-0.5026041666666666],[-0.046875],[1],[0],[0],[1.7005229000001236],[],237628,001,2024-10-04_11h54.56.695,visual search task,2024.1.5,None,2024-10-04 11h55.07.104005 +0530,
56,0,56,0,104.1685723999999,,104.10822359999975,10,104.1685723999999,104.1685723999999,0.035707300000012765,105.20125109999981,105.83611089999977,[0.4505208333333333],[0.0625],[1],[0],[0],[1.692797199999859],['target'],237628,001,2024-10-04_11h54.56.695,visual search task,2024.1.5,None,2024-10-04 11h55.07.104005 +0530,
57,0,57,0,105.90118909999956,,105.84166679999998,10,105.90118909999956,105.90118909999956,0.0354128000003584,106.9345900999997,107.3360561999998,[0.140625],[0.0859375],[1],[0],[0],[1.4598469000002297],['target'],237628,001,2024-10-04_11h54.56.695,visual search task,2024.1.5,None,2024-10-04 11h55.07.104005 +0530,
58,0,58,0,107.40181919999986,,107.3412344999997,10,107.40181919999986,107.40181919999986,0.03616890000012063,108.43450349999966,109.3034789999997,[0.13151041666666666],[-0.4127604166666667],[1],[0],[0],[1.9267233000000488],['target'],237628,001,2024-10-04_11h54.56.695,visual search task,2024.1.5,None,2024-10-04 11h55.07.104005 +0530,
59,0,59,0,109.35105919999978,,109.30868789999977,5,109.35105919999978,109.35105919999978,0.018744499999684194,110.38461859999961,111.02018419999968,[0.3828125],[0.3971354166666667],[1],[0],[0],[1.6934320000000298],['target'],237628,001,2024-10-04_11h54.56.695,visual search task,2024.1.5,None,2024-10-04 11h55.07.104005 +0530,
60,0,60,0,111.06762959999969,,111.0251916999996,5,111.06762959999969,111.06762959999969,0.025721900000007736,112.06784289999996,112.53626269999995,[-0.171875],[0.0],[1],[0],[0],[1.4859252999999626],[],237628,001,2024-10-04_11h54.56.695,visual search task,2024.1.5,None,2024-10-04 11h55.07.104005 +0530,
61,0,61,0,112.58430289999978,,112.54163469999958,5,112.58430289999978,112.58430289999978,0.022983300000305462,113.58429609999985,114.30229129999998,[-0.2916666666666667],[0.3932291666666667],[1],[0],[0],[1.7383360999997421],['target'],237628,001,2024-10-04_11h54.56.695,visual search task,2024.1.5,None,2024-10-04 11h55.07.104005 +0530,
62,0,62,0,114.35223149999956,,114.30787009999995,5,114.35223149999956,114.35223149999956,0.023783000000094034,115.36782649999986,115.78570059999993,[-0.4921875],[0.16015625],[1],[0],[0],[1.4548366000003625],['target'],237628,001,2024-10-04_11h54.56.695,visual search task,2024.1.5,None,2024-10-04 11h55.07.104005 +0530,
63,0,63,0,115.86834869999984,,115.79108759999963,10,115.86834869999984,115.86834869999984,0.04888570000002801,116.9011430999999,117.36898479999991,[-0.2903645833333333],[0.3776041666666667],[1],[0],[0],[1.5297379999997247],['target'],237628,001,2024-10-04_11h54.56.695,visual search task,2024.1.5,None,2024-10-04 11h55.07.104005 +0530,
64,0,64,0,117.46862839999994,,117.37446189999991,10,117.46862839999994,117.46862839999994,0.04538070000035077,118.50088369999958,119.13642169999957,[0.2903645833333333],[0.19270833333333334],[1],[0],[0],[1.717247000000043],['target'],237628,001,2024-10-04_11h54.56.695,visual search task,2024.1.5,None,2024-10-04 11h55.07.104005 +0530,
65,0,65,0,119.21913859999995,,119.14201099999991,10,119.21913859999995,119.21913859999995,0.0442550000002484,120.25084399999969,120.48636869999973,[-0.037760416666666664],[0.109375],[1],[0],[0],[1.3007642000002306],[],237628,001,2024-10-04_11h54.56.695,visual search task,2024.1.5,None,2024-10-04 11h55.07.104005 +0530,
66,0,66,0,120.53518089999989,,120.49174949999997,5,120.53518089999989,120.53518089999989,0.022908999999799562,121.5508147999999,122.08546439999964,[-0.0859375],[0.4427083333333333],[1],[0],[0],[1.5716033999997308],['target'],237628,001,2024-10-04_11h54.56.695,visual search task,2024.1.5,None,2024-10-04 11h55.07.104005 +0530,
67,0,67,0,122.13413459999992,,122.09026559999984,5,122.13413459999992,122.13413459999992,0.020414699999946606,123.1340226999996,124.00237829999969,[-0.3919270833333333],[0.30078125],[1],[0],[0],[1.8923796000003676],['target'],237628,001,2024-10-04_11h54.56.695,visual search task,2024.1.5,None,2024-10-04 11h55.07.104005 +0530,
68,0,68,0,124.06747079999968,,124.00638869999966,10,124.06747079999968,124.06747079999968,0.03404350000027989,125.10064889999967,125.53594789999988,[-0.16276041666666666],[0.18229166666666666],[1],[0],[0],[1.495724699999755],['target'],237628,001,2024-10-04_11h54.56.695,visual search task,2024.1.5,None,2024-10-04 11h55.07.104005 +0530,
69,0,69,0,125.63530189999983,,125.54319729999997,10,125.63530189999983,125.63530189999983,0.06136719999994966,126.66728749999993,127.16894509999975,[-0.3411458333333333],[0.15625],[1],[0],[0],[1.565468399999645],['target'],237628,001,2024-10-04_11h54.56.695,visual search task,2024.1.5,None,2024-10-04 11h55.07.104005 +0530,
70,0,70,0,127.21860359999982,,127.17430979999972,5,127.21860359999982,127.21860359999982,0.018943300000046293,128.23380579999957,128.60231969999995,[0.06640625],[0.0026041666666666665],[1],[0],[0],[1.4097630999999637],[],237628,001,2024-10-04_11h54.56.695,visual search task,2024.1.5,None,2024-10-04 11h55.07.104005 +0530,
71,0,71,0,128.6505645999996,,128.60665709999967,5,128.6505645999996,128.6505645999996,0.017388000000210013,129.65041219999966,130.16913989999966,[0.3502604166666667],[0.2513020833333333],[1],[0],[0],[1.5454984000002696],['target'],237628,001,2024-10-04_11h54.56.695,visual search task,2024.1.5,None,2024-10-04 11h55.07.104005 +0530,
72,0,72,0,130.23452749999979,,130.1748534999997,10,130.23452749999979,130.23452749999979,0.03461560000005193,131.2672303999998,131.9368012,[-0.2799479166666667],[-0.0078125],[1],[0],[0],[1.7280031999998755],['target'],237628,001,2024-10-04_11h54.56.695,visual search task,2024.1.5,None,2024-10-04 11h55.07.104005 +0530,
73,0,73,0,132.05137699999977,,131.94311059999973,10,132.05137699999977,132.05137699999977,0.06463080000003174,133.08384609999985,133.652736,[0.1640625],[-0.17838541666666666],[1],[0],[0],[1.645897899999909],['target'],237628,001,2024-10-04_11h54.56.695,visual search task,2024.1.5,None,2024-10-04 11h55.07.104005 +0530,
74,0,74,0,133.70043619999979,,133.6577183999998,5,133.70043619999979,133.70043619999979,0.022743399999853864,134.70037219999995,135.2851886999997,[-0.3880208333333333],[-0.21875],[1],[0],[0],[1.6053679000001466],['target'],237628,001,2024-10-04_11h54.56.695,visual search task,2024.1.5,None,2024-10-04 11h55.07.104005 +0530,
75,0,75,0,135.35042719999956,,135.2903068999999,10,135.35042719999956,135.35042719999956,0.033377000000200496,136.38373199999978,137.3189852999999,[0.3854166666666667],[-0.029947916666666668],[1],[0],[0],[1.9957977999997638],['target'],237628,001,2024-10-04_11h54.56.695,visual search task,2024.1.5,None,2024-10-04 11h55.07.104005 +0530,
76,0,76,0,137.36696389999997,,137.32449549999956,5,137.36696389999997,137.36696389999997,0.019562699999823963,138.3668432999998,138.68502999999964,[0.024739583333333332],[-0.14583333333333334],[1],[0],[0],[1.3417136000002756],['target'],237628,001,2024-10-04_11h54.56.695,visual search task,2024.1.5,None,2024-10-04 11h55.07.104005 +0530,
77,0,77,0,138.73357569999962,,138.69009789999973,5,138.73357569999962,138.73357569999962,0.01747079999995549,139.73354739999968,140.63498609999988,[0.0703125],[0.4479166666666667],[1],[0],[0],[1.9279593000001114],['target'],237628,001,2024-10-04_11h54.56.695,visual search task,2024.1.5,None,2024-10-04 11h55.07.104005 +0530,
78,0,78,0,140.70091139999977,,140.64035209999975,10,140.70091139999977,140.70091139999977,0.03481650000003356,141.7335922999996,142.80211009999994,[-0.3671875],[-0.3424479166666667],[1],[0],[0],[2.127632000000176],['target'],237628,001,2024-10-04_11h54.56.695,visual search task,2024.1.5,None,2024-10-04 11h55.07.104005 +0530,
79,0,79,0,142.86687029999985,,142.80758519999972,10,142.86687029999985,142.86687029999985,0.03835839999965174,143.8835694999998,145.53561049999962,[0.3463541666666667],[-0.30859375],[1],[0],[0],[2.6905492999999296],['target'],237628,001,2024-10-04_11h54.56.695,visual search task,2024.1.5,None,2024-10-04 11h55.07.104005 +0530,
80,0,80,0,145.58340809999982,,145.5409364999996,5,145.58340809999982,145.58340809999982,0.023406100000102015,146.58340169999974,147.71868399999994,[-0.032552083333333336],[0.40234375],[1],[0],[0],[2.1550271000000976],['target'],237628,001,2024-10-04_11h54.56.695,visual search task,2024.1.5,None,2024-10-04 11h55.07.104005 +0530,
81,0,81,0,147.8007158999999,,147.72415359999968,10,147.8007158999999,147.8007158999999,0.04490720000012516,148.83332429999973,149.40184569999974,[-0.20182291666666666],[-0.015625],[1],[0],[0],[1.63348649999989],[],237628,001,2024-10-04_11h54.56.695,visual search task,2024.1.5,None,2024-10-04 11h55.07.104005 +0530,
82,0,82,0,149.45107609999968,,149.40737199999967,5,149.45107609999968,149.45107609999968,0.02380139999968378,150.46657509999977,151.15194919999976,[0.2942708333333333],[-0.045572916666666664],[1],[0],[0],[1.7217419000003247],['target'],237628,001,2024-10-04_11h54.56.695,visual search task,2024.1.5,None,2024-10-04 11h55.07.104005 +0530,
83,0,83,0,151.19990789999974,,151.15734339999972,5,151.19990789999974,151.19990789999974,0.022768100000121194,152.19980879999957,153.85182609999993,[-0.23697916666666666],[0.4765625],[1],[0],[0],[2.672401400000126],['target'],237628,001,2024-10-04_11h54.56.695,visual search task,2024.1.5,None,2024-10-04 11h55.07.104005 +0530,
84,0,84,0,153.90116799999987,,153.85734289999982,5,153.90116799999987,153.90116799999987,0.022807800000009593,154.91643569999997,155.30207109999992,[-0.25],[-0.036458333333333336],[1],[0],[0],[1.4226019999996424],['target'],237628,001,2024-10-04_11h54.56.695,visual search task,2024.1.5,None,2024-10-04 11h55.07.104005 +0530,
85,0,85,0,155.38379909999958,,155.30740879999985,10,155.38379909999958,155.38379909999958,0.044177700000091136,156.41646909999963,157.0179392,[-0.4427083333333333],[0.23046875],[1],[0],[0],[1.6670238000001518],['target'],237628,001,2024-10-04_11h54.56.695,visual search task,2024.1.5,None,2024-10-04 11h55.07.104005 +0530,
86,0,86,0,157.06781939999973,,157.02322939999976,5,157.06781939999973,157.06781939999973,0.02329090000012002,158.0831315999999,158.5177047999996,[0.033854166666666664],[0.4205729166666667],[1],[0],[0],[1.4718714999999065],['target'],237628,001,2024-10-04_11h54.56.695,visual search task,2024.1.5,None,2024-10-04 11h55.07.104005 +0530,
87,0,87,0,158.58367819999967,,158.52346979999993,10,158.58367819999967,158.58367819999967,0.03651549999995041,159.6163561999997,160.7182875999997,[0.009114583333333334],[0.14583333333333334],[1],[0],[0],[2.1590252999999393],[],237628,001,2024-10-04_11h54.56.695,visual search task,2024.1.5,None,2024-10-04 11h55.07.104005 +0530,
88,0,88,0,160.7680220999996,,160.72347759999957,5,160.7680220999996,160.7680220999996,0.022472599999673548,161.7828317999997,162.11821089999967,[-0.3046875],[-0.07421875],[1],[0],[0],[1.3729515999998512],['target'],237628,001,2024-10-04_11h54.56.695,visual search task,2024.1.5,None,2024-10-04 11h55.07.104005 +0530,
89,0,89,0,162.1671366999999,,162.12230199999976,5,162.1671366999999,162.1671366999999,0.017460699999901408,163.1828673,164.7015323999999,[0.03515625],[0.045572916666666664],[1],[0],[0],[2.5621679999999287],['target'],237628,001,2024-10-04_11h54.56.695,visual search task,2024.1.5,None,2024-10-04 11h55.07.104005 +0530,
90,0,90,0,164.76619889999984,,164.70614049999995,10,164.76619889999984,164.76619889999984,0.03375940000023547,165.7995695999998,168.43476659999988,[0.4739583333333333],[0.2630208333333333],[1],[0],[0],[3.6953410000000986],['target'],237628,001,2024-10-04_11h54.56.695,visual search task,2024.1.5,None,2024-10-04 11h55.07.104005 +0530,
91,0,91,0,168.50010229999998,,168.4401158999999,10,168.50010229999998,168.50010229999998,0.035887499999716965,169.5327725999996,170.30089109999972,[-0.28515625],[0.016927083333333332],[1],[0],[0],[1.8255153000000064],['target'],237628,001,2024-10-04_11h54.56.695,visual search task,2024.1.5,None,2024-10-04 11h55.07.104005 +0530,
92,0,92,0,170.36601709999968,,170.30621369999972,10,170.36601709999968,170.36601709999968,0.03527540000004592,171.3993863999999,172.73409729999958,[0.014322916666666666],[-0.390625],[1],[0],[0],[2.393315100000109],['target'],237628,001,2024-10-04_11h54.56.695,visual search task,2024.1.5,None,2024-10-04 11h55.07.104005 +0530,
93,0,93,0,172.7999491999999,,172.73941159999958,10,172.7999491999999,172.7999491999999,0.035072199999831355,173.83261389999961,174.06818629999998,[-0.3072916666666667],[-0.22526041666666666],[1],[0],[0],[1.294326500000352],['target'],237628,001,2024-10-04_11h54.56.695,visual search task,2024.1.5,None,2024-10-04 11h55.07.104005 +0530,
94,0,94,0,174.1325168999997,,174.07349109999996,10,174.1325168999997,174.1325168999997,0.04039409999995769,175.1659735999997,176.86838099999977,[-0.4283854166666667],[-0.3854166666666667],[1],[0],[0],[2.7549496999999974],['target'],237628,001,2024-10-04_11h54.56.695,visual search task,2024.1.5,None,2024-10-04 11h55.07.104005 +0530,
95,0,95,0,176.93320189999986,,176.87355249999973,10,176.93320189999986,176.93320189999986,0.03561889999991763,177.9657944999999,179.60122299999966,[0.12890625],[-0.4322916666666667],[1],[0],[0],[2.692628700000114],['target'],237628,001,2024-10-04_11h54.56.695,visual search task,2024.1.5,None,2024-10-04 11h55.07.104005 +0530,
96,0,96,0,179.6657651999999,,179.60678789999974,10,179.6657651999999,179.6657651999999,0.035601499999756925,180.6991521,181.50055089999978,[0.055989583333333336],[0.3411458333333333],[1],[0],[0],[1.8589084999998704],['target'],237628,001,2024-10-04_11h54.56.695,visual search task,2024.1.5,None,2024-10-04 11h55.07.104005 +0530,
97,0,97,0,181.56635179999967,,181.50593879999997,10,181.56635179999967,181.56635179999967,0.03515749999996842,182.5990351999999,183.93448739999985,[0.33984375],[-0.029947916666666668],[1],[0],[0],[2.3942111000001205],['target'],237628,001,2024-10-04_11h54.56.695,visual search task,2024.1.5,None,2024-10-04 11h55.07.104005 +0530,
98,0,98,0,183.98330369999985,,183.93990069999973,5,183.98330369999985,183.98330369999985,0.019081500000083906,184.98213299999998,185.3508036999997,[0.078125],[0.02734375],[1],[0],[0],[1.3925742000001264],['target'],237628,001,2024-10-04_11h54.56.695,visual search task,2024.1.5,None,2024-10-04 11h55.07.104005 +0530,
99,0,99,0,185.3989047,,185.35522539999965,5,185.3989047,185.3989047,0.017310299999735435,186.41552899999988,186.86734229999956,[-0.015625],[-0.18619791666666666],[1],[0],[0],[1.4952144999997472],['target'],237628,001,2024-10-04_11h54.56.695,visual search task,2024.1.5,None,2024-10-04 11h55.07.104005 +0530,
100,0,100,0,186.91549469999973,,186.87167169999975,5,186.91549469999973,186.91549469999973,0.01938689999997223,187.91558689999965,188.63315869999997,[0.15494791666666666],[-0.048177083333333336],[1],[0],[0],[1.7425681999998233],['target'],237628,001,2024-10-04_11h54.56.695,visual search task,2024.1.5,None,2024-10-04 11h55.07.104005 +0530,
101,0,101,0,188.6988865999997,,188.63725239999985,10,188.6988865999997,188.6988865999997,0.03373590000001059,189.73217169999998,191.43391369999972,[0.265625],[0.3411458333333333],[1],[0],[0],[2.7633608999999524],['target'],237628,001,2024-10-04_11h54.56.695,visual search task,2024.1.5,None,2024-10-04 11h55.07.104005 +0530,
102,0,102,0,191.4994614999996,,191.4384786999999,10,191.4994614999996,191.4994614999996,0.035361200000352255,,191.5343158999999,[0.265625],[0.3411458333333333],[1],[0],[0],[0.060868399999890244],[],237628,001,2024-10-04_11h54.56.695,visual search task,2024.1.5,None,2024-10-04 11h55.07.104005 +0530,
103,0,103,0,191.58199959999956,,191.54016729999967,5,191.58199959999956,191.58199959999956,0.018592200000057346,192.58188649999965,194.28343189999987,[-0.125],[-0.4348958333333333],[1],[0],[0],[2.725292100000388],['target'],237628,001,2024-10-04_11h54.56.695,visual search task,2024.1.5,None,2024-10-04 11h55.07.104005 +0530,
104,0,104,0,194.34866759999977,,194.2877165,10,194.34866759999977,194.34866759999977,0.033789299999625655,195.38197569999966,195.58413059999975,[0.3385416666666667],[0.12630208333333334],[1],[0],[0],[1.2630825000001096],[],237628,001,2024-10-04_11h54.56.695,visual search task,2024.1.5,None,2024-10-04 11h55.07.104005 +0530,
105,0,105,0,195.63196419999986,,195.5896074999996,5,195.63196419999986,195.63196419999986,0.02063510000016322,196.63181699999996,197.7503096999999,[0.01953125],[-0.4270833333333333],[1],[0],[0],[2.1407780999998067],['target'],237628,001,2024-10-04_11h54.56.695,visual search task,2024.1.5,None,2024-10-04 11h55.07.104005 +0530,
106,0,106,0,197.79958679999982,,197.75459919999957,5,197.79958679999982,197.79958679999982,0.017208799999934854,198.8151226,199.26710909999974,[0.30859375],[0.3463541666666667],[1],[0],[0],[1.4957500000000437],['target'],237628,001,2024-10-04_11h54.56.695,visual search task,2024.1.5,None,2024-10-04 11h55.07.104005 +0530,
107,0,107,0,199.31600519999984,,199.27336969999988,5,199.31600519999984,199.31600519999984,0.018959999999879074,200.31508789999998,201.28354729999955,[-0.4361979166666667],[-0.24088541666666666],[1],[0],[0],[1.9919763999996576],['target'],237628,001,2024-10-04_11h54.56.695,visual search task,2024.1.5,None,2024-10-04 11h55.07.104005 +0530,
108,0,108,0,201.3484440999996,,201.28883879999967,10,201.3484440999996,201.3484440999996,0.0342040000000452,202.3818140999997,202.75059199999987,[-0.15755208333333334],[0.049479166666666664],[1],[0],[0],[1.4281056999998327],[],237628,001,2024-10-04_11h54.56.695,visual search task,2024.1.5,None,2024-10-04 11h55.07.104005 +0530,
109,0,109,0,202.79969839999967,,202.75598459999992,5,202.79969839999967,202.79969839999967,0.018352400000367197,203.8149728999997,204.5497003999999,[-0.2747395833333333],[0.3450520833333333],[1],[0],[0],[1.7762650999998186],['target'],237628,001,2024-10-04_11h54.56.695,visual search task,2024.1.5,None,2024-10-04 11h55.07.104005 +0530,
110,0,110,0,204.61590819999992,,204.5539845999997,10,204.61590819999992,204.61590819999992,0.03424299999960567,205.64831679999998,206.38303889999997,[0.3854166666666667],[-0.24088541666666666],[1],[0],[0],[1.7952503999999863],['target'],237628,001,2024-10-04_11h54.56.695,visual search task,2024.1.5,None,2024-10-04 11h55.07.104005 +0530,
111,0,111,0,206.43162939999957,,206.38854109999966,5,206.43162939999957,206.43162939999957,0.018956400000206486,207.43148889999975,208.4329445999997,[-0.21354166666666666],[-0.3658854166666667],[1],[0],[0],[2.026072199999817],['target'],237628,001,2024-10-04_11h54.56.695,visual search task,2024.1.5,None,2024-10-04 11h55.07.104005 +0530,
112,0,112,0,208.49839129999964,,208.43770209999957,10,208.49839129999964,208.49839129999964,0.037739200000032724,209.53160039999966,210.0010602999996,[0.046875],[-0.3841145833333333],[1],[0],[0],[1.5260961999997562],['target'],237628,001,2024-10-04_11h54.56.695,visual search task,2024.1.5,None,2024-10-04 11h55.07.104005 +0530,
113,0,113,0,210.06566919999977,,210.00647149999986,10,210.06566919999977,210.06566919999977,0.03486659999998665,211.09826059999978,212.9002461,[0.4036458333333333],[-0.3880208333333333],[1],[0],[0],[2.8595761000001403],['target'],237628,001,2024-10-04_11h54.56.695,visual search task,2024.1.5,None,2024-10-04 11h55.07.104005 +0530,
114,0,114,0,212.96477979999963,,212.90612229999988,10,212.96477979999963,212.96477979999963,0.035315300000092975,213.99821989999964,215.16698049999968,[0.3333333333333333],[0.21223958333333334],[1],[0],[0],[2.2261834999999337],['target'],237628,001,2024-10-04_11h54.56.695,visual search task,2024.1.5,None,2024-10-04 11h55.07.104005 +0530,
115,0,115,0,215.23138619999963,,215.17219279999972,10,215.23138619999963,215.23138619999963,0.034801100000095175,216.2647161,218.7223712,[-0.11197916666666667],[-0.10286458333333333],[1],[0],[0],[3.5151068000000123],[],237628,001,2024-10-04_11h54.56.695,visual search task,2024.1.5,None,2024-10-04 11h55.07.104005 +0530,
116,0,116,0,218.79892759999984,,218.7302669999999,10,218.79892759999984,218.79892759999984,0.040159700000003795,219.83145009999998,220.39996689999998,[0.24739583333333334],[0.20963541666666666],[1],[0],[0],[1.630565999999817],['target'],237628,001,2024-10-04_11h54.56.695,visual search task,2024.1.5,None,2024-10-04 11h55.07.104005 +0530,
117,0,117,0,220.46458259999963,,220.4054658,10,220.46458259999963,220.46458259999963,0.035060300000168354,221.49802249999993,222.46667579999985,[-0.12630208333333334],[-0.34765625],[1],[0],[0],[2.027028099999825],['target'],237628,001,2024-10-04_11h54.56.695,visual search task,2024.1.5,None,2024-10-04 11h55.07.104005 +0530,
118,0,118,0,222.53212059999987,,222.47218759999987,10,222.53212059999987,222.53212059999987,0.035271300000204064,223.5651183,225.03330359999973,[0.4153645833333333],[-0.2734375],[1],[0],[0],[2.526564600000256],['target'],237628,001,2024-10-04_11h54.56.695,visual search task,2024.1.5,None,2024-10-04 11h55.07.104005 +0530,
119,0,119,0,225.09777669999994,,225.03849169999967,10,225.09777669999994,225.09777669999994,0.03524130000005243,226.1311409,227.1331951999996,[-0.17447916666666666],[0.21744791666666666],[1],[0],[0],[2.0601032000004125],['target'],237628,001,2024-10-04_11h54.56.695,visual search task,2024.1.5,None,2024-10-04 11h55.07.104005 +0530,
120,0,120,0,227.18102509999972,,227.13863279999987,5,227.18102509999972,227.18102509999972,0.018325499999718886,228.18087149999974,229.16584909999983,[0.2630208333333333],[0.00390625],[1],[0],[0],[2.009600099999716],['target'],237628,001,2024-10-04_11h54.56.695,visual search task,2024.1.5,None,2024-10-04 11h55.07.104005 +0530,
121,0,121,0,229.23167019999983,,229.17112279999992,10,229.23167019999983,229.23167019999983,0.03557989999990241,230.26430789999995,231.7161274,[0.16145833333333334],[0.22526041666666666],[1],[0],[0],[2.5100766000000476],['target'],237628,001,2024-10-04_11h54.56.695,visual search task,2024.1.5,None,2024-10-04 11h55.07.104005 +0530,
122,0,122,0,231.7642176999998,,231.72155639999983,5,231.7642176999998,231.7642176999998,0.01877539999986766,232.76408459999993,233.23297639999964,[0.061197916666666664],[-0.3294270833333333],[1],[0],[0],[1.4933228999998391],['target'],237628,001,2024-10-04_11h54.56.695,visual search task,2024.1.5,None,2024-10-04 11h55.07.104005 +0530,
123,0,123,0,233.2976348999996,,233.2374262999997,10,233.2976348999996,233.2976348999996,0.034266999999999825,234.33084229999986,234.56600869999966,[0.078125],[-0.029947916666666668],[1],[0],[0],[1.2948083999999653],['target'],237628,001,2024-10-04_11h54.56.695,visual search task,2024.1.5,None,2024-10-04 11h55.07.104005 +0530,
124,0,124,0,234.6308856999999,,234.57144719999997,10,234.6308856999999,234.6308856999999,0.03415569999970103,235.6642052999996,237.09955409999975,[0.21744791666666666],[0.4036458333333333],[1],[0],[0],[2.4945959000001494],['target'],237628,001,2024-10-04_11h54.56.695,visual search task,2024.1.5,None,2024-10-04 11h55.07.104005 +0530,
125,0,125,0,237.1485773999998,,237.1048040999999,5,237.1485773999998,237.1485773999998,0.017781300000024203,238.16402819999985,239.0652323999998,[0.026041666666666668],[0.020833333333333332],[1],[0],[0],[1.9433579999999893],[],237628,001,2024-10-04_11h54.56.695,visual search task,2024.1.5,None,2024-10-04 11h55.07.104005 +0530,
126,0,126,0,239.13134949999994,,239.06963579999956,10,239.13134949999994,239.13134949999994,0.03335269999979573,240.16411349999998,241.13275019999992,[-0.17057291666666666],[0.036458333333333336],[1],[0],[0],[2.030069800000092],[],237628,001,2024-10-04_11h54.56.695,visual search task,2024.1.5,None,2024-10-04 11h55.07.104005 +0530,
127,0,127,0,241.21408889999975,,241.13805209999964,10,241.21408889999975,241.21408889999975,0.044080599999688275,242.24745299999995,243.68289659999982,[-0.3411458333333333],[-0.19791666666666666],[1],[0],[0],[2.501450499999919],['target'],237628,001,2024-10-04_11h54.56.695,visual search task,2024.1.5,None,2024-10-04 11h55.07.104005 +0530,
128,0,128,0,243.7306282999998,,243.68848359999993,5,243.7306282999998,243.7306282999998,0.022339499999816326,244.73053139999956,245.36594389999982,[-0.11197916666666667],[-0.0013020833333333333],[1],[0],[0],[1.6559069999998428],['target'],237628,001,2024-10-04_11h54.56.695,visual search task,2024.1.5,None,2024-10-04 11h55.07.104005 +0530,
129,0,129,0,245.44788949999975,,245.37135309999985,10,245.44788949999975,245.44788949999975,0.044027899999946385,246.46682539999983,247.03196069999967,[-0.3645833333333333],[-0.4166666666666667],[1],[0],[0],[1.617482999999993],[],237628,001,2024-10-04_11h54.56.695,visual search task,2024.1.5,None,2024-10-04 11h55.07.104005 +0530,
130,0,130,0,247.0971099999997,,247.03738879999992,10,247.0971099999997,247.0971099999997,0.035820999999941705,248.1304697999999,249.23192759999984,[0.24609375],[-0.21223958333333334],[1],[0],[0],[2.1594113000001016],['target'],237628,001,2024-10-04_11h54.56.695,visual search task,2024.1.5,None,2024-10-04 11h55.07.104005 +0530,
131,0,131,0,249.28156349999972,,249.2373795999997,5,249.28156349999972,249.28156349999972,0.018345399999816436,250.29694249999966,250.7651133999998,[-0.11848958333333333],[0.33984375],[1],[0],[0],[1.5098656999998639],['target'],237628,001,2024-10-04_11h54.56.695,visual search task,2024.1.5,None,2024-10-04 11h55.07.104005 +0530,
132,0,132,0,250.8144852999999,,250.76940869999999,5,250.8144852999999,250.8144852999999,0.0172061000002941,251.81352519999973,252.38386569999966,[-0.1640625],[0.2981770833333333],[1],[0],[0],[1.5975758999998106],['target'],237628,001,2024-10-04_11h54.56.695,visual search task,2024.1.5,None,2024-10-04 11h55.07.104005 +0530,
133,0,133,0,252.4637272,,252.39026259999991,10,252.4637272,252.4637272,0.036461099999996804,253.49695629999997,253.83246279999958,[-0.2265625],[0.20833333333333334],[1],[0],[0],[1.4063027000001966],['target'],237628,001,2024-10-04_11h54.56.695,visual search task,2024.1.5,None,2024-10-04 11h55.07.104005 +0530,
134,0,134,0,253.8802883999997,,253.83794739999985,5,253.8802883999997,253.8802883999997,0.018310500000097818,254.88025489999973,255.9649304999998,[-0.0546875],[-0.265625],[1],[0],[0],[2.1093819999996413],['target'],237628,001,2024-10-04_11h54.56.695,visual search task,2024.1.5,None,2024-10-04 11h55.07.104005 +0530,
135,0,135,0,256.0308978999997,,255.9697772999998,10,256.0308978999997,256.0308978999997,0.03501399999959176,257.0635411999997,257.89826649999986,[-0.4088541666666667],[-0.26171875],[1],[0],[0],[1.8942319000002499],['target'],237628,001,2024-10-04_11h54.56.695,visual search task,2024.1.5,None,2024-10-04 11h55.07.104005 +0530,
136,0,136,0,257.94681579999997,,257.9036557999998,5,257.94681579999997,257.94681579999997,0.023275800000192248,258.9468188999999,259.7984884999996,[-0.3151041666666667],[0.3658854166666667],[1],[0],[0],[1.872251199999937],['target'],237628,001,2024-10-04_11h54.56.695,visual search task,2024.1.5,None,2024-10-04 11h55.07.104005 +0530,
137,0,137,0,259.8801285999998,,259.80384419999973,10,259.8801285999998,259.8801285999998,0.044884299999921495,260.9134277999997,260.94869579999977,[-0.2526041666666667],[0.4127604166666667],[1],[0],[0],[1.100672399999894],['target'],237628,001,2024-10-04_11h54.56.695,visual search task,2024.1.5,None,2024-10-04 11h55.07.104005 +0530,
138,0,138,0,261.03078769999956,,260.9541408,10,261.03078769999956,261.03078769999956,0.04567110000016328,262.06345899999997,263.2991774999996,[0.22526041666666666],[-0.22265625],[1],[0],[0],[2.2999543999999332],['target'],237628,001,2024-10-04_11h54.56.695,visual search task,2024.1.5,None,2024-10-04 11h55.07.104005 +0530,
139,0,139,0,263.3800999,,263.3045047999999,10,263.3800999,263.3800999,0.04509790000020075,264.41342159999977,265.5155931999998,[-0.2747395833333333],[0.24869791666666666],[1],[0],[0],[2.166525300000103],['target'],237628,001,2024-10-04_11h54.56.695,visual search task,2024.1.5,None,2024-10-04 11h55.07.104005 +0530,
140,0,140,0,265.56326329999956,,265.5209732999997,5,265.56326329999956,265.56326329999956,0.01838320000024396,266.5630944999998,266.94862139999987,[0.31640625],[-0.1328125],[1],[0],[0],[1.4099321000003329],['target'],237628,001,2024-10-04_11h54.56.695,visual search task,2024.1.5,None,2024-10-04 11h55.07.104005 +0530,
141,0,141,0,266.9977990999996,,266.95287469999994,5,266.9977990999996,266.9977990999996,0.017504400000234455,268.0131330999998,269.0815848999996,[-0.2734375],[-0.2526041666666667],[1],[0],[0],[2.111622400000215],['target'],237628,001,2024-10-04_11h54.56.695,visual search task,2024.1.5,None,2024-10-04 11h55.07.104005 +0530,
142,0,142,0,269.12979069999983,,269.0859995999999,5,269.12979069999983,269.12979069999983,0.01741020000008575,270.1296981999999,271.0809425999996,[-0.4270833333333333],[0.11458333333333333],[1],[0],[0],[1.9779978999999912],['target'],237628,001,2024-10-04_11h54.56.695,visual search task,2024.1.5,None,2024-10-04 11h55.07.104005 +0530,
143,0,143,0,271.1307704999999,,271.0855081999998,5,271.1307704999999,271.1307704999999,0.017300800000157324,272.14635709999993,272.6810564999996,[0.37890625],[-0.046875],[1],[0],[0],[1.5784864000002017],['target'],237628,001,2024-10-04_11h54.56.695,visual search task,2024.1.5,None,2024-10-04 11h55.07.104005 +0530,
144,0,144,0,272.7471066999997,,272.68543539999973,10,272.7471066999997,272.7471066999997,0.03356989999974758,273.7797171999996,274.84824439999966,[-0.39453125],[-0.37890625],[1],[0],[0],[2.129665400000249],['target'],237628,001,2024-10-04_11h54.56.695,visual search task,2024.1.5,None,2024-10-04 11h55.07.104005 +0530,
145,0,145,0,274.8962904,,274.8537938999998,5,274.8962904,274.8962904,0.022947999999814783,275.89627789999986,276.6811269,[-0.02734375],[-0.3502604166666667],[1],[0],[0],[1.8052939999997761],['target'],237628,001,2024-10-04_11h54.56.695,visual search task,2024.1.5,None,2024-10-04 11h55.07.104005 +0530,
146,0,146,0,276.73061529999995,,276.68666459999986,5,276.73061529999995,276.73061529999995,0.022772899999836227,277.7461957999999,278.49756149999985,[-0.24609375],[0.296875],[1],[0],[0],[1.7888155999999071],['target'],237628,001,2024-10-04_11h54.56.695,visual search task,2024.1.5,None,2024-10-04 11h55.07.104005 +0530,
147,0,147,0,278.54763589999993,,278.50306439999986,5,278.54763589999993,278.54763589999993,0.022591599999941536,279.56286379999983,280.2310129999996,[0.0078125],[-0.2786458333333333],[1],[0],[0],[1.705830800000058],['target'],237628,001,2024-10-04_11h54.56.695,visual search task,2024.1.5,None,2024-10-04 11h55.07.104005 +0530,
148,0,148,0,280.2804640999998,,280.2363385999997,5,280.2804640999998,280.2804640999998,0.02268530000037572,281.29620769999974,283.1477977999998,[0.19401041666666666],[-0.4348958333333333],[1],[0],[0],[2.8894608000000517],['target'],237628,001,2024-10-04_11h54.56.695,visual search task,2024.1.5,None,2024-10-04 11h55.07.104005 +0530,
149,0,149,0,283.21280279999974,,283.1535485999998,10,283.21280279999974,283.21280279999974,0.034811700000318524,284.24605999999994,285.2812335999997,[0.140625],[0.3541666666666667],[1],[0],[0],[2.0936804000002667],['target'],237628,001,2024-10-04_11h54.56.695,visual search task,2024.1.5,None,2024-10-04 11h55.07.104005 +0530,
150,0,150,0,285.3293626999998,,285.28670829999965,5,285.3293626999998,285.3293626999998,0.019787300000189134,286.32928879999963,286.79810039999984,[-0.033854166666666664],[0.16015625],[1],[0],[0],[1.492265000000316],['target'],237628,001,2024-10-04_11h54.56.695,visual search task,2024.1.5,None,2024-10-04 11h55.07.104005 +0530,
151,0,151,0,286.8633642,,286.8039980999997,10,286.8633642,286.8633642,0.03542349999997896,287.8794407999999,288.94728339999983,[0.32421875],[0.171875],[1],[0],[0],[2.1084922000000006],['target'],237628,001,2024-10-04_11h54.56.695,visual search task,2024.1.5,None,2024-10-04 11h55.07.104005 +0530,
152,0,152,0,289.01277059999984,,288.95271189999994,10,289.01277059999984,289.01277059999984,0.03512079999973139,290.0459641999996,291.54745319999984,[-0.40625],[0.4427083333333333],[1],[0],[0],[2.5603869000001396],['target'],237628,001,2024-10-04_11h54.56.695,visual search task,2024.1.5,None,2024-10-04 11h55.07.104005 +0530,
153,0,153,0,291.5958251999996,,291.5528850999999,5,291.5958251999996,291.5958251999996,0.01847940000016024,292.5956762999999,294.29713619999984,[0.30078125],[-0.036458333333333336],[1],[0],[0],[2.7263834999998835],['target'],237628,001,2024-10-04_11h54.56.695,visual search task,2024.1.5,None,2024-10-04 11h55.07.104005 +0530,
154,0,154,0,294.36312229999976,,294.3013415999999,10,294.36312229999976,294.36312229999976,0.03430409999964468,295.39596919999985,295.6313148999998,[0.2552083333333333],[0.2760416666666667],[1],[0],[0],[1.2959444000002804],['target'],237628,001,2024-10-04_11h54.56.695,visual search task,2024.1.5,None,2024-10-04 11h55.07.104005 +0530,
155,0,155,0,295.67909409999993,,295.63741809999965,5,295.67909409999993,295.67909409999993,0.019998900000246067,296.67912019999994,297.6973647,[-0.0390625],[0.3216145833333333],[1],[0],[0],[2.0405848000000333],['target'],237628,001,2024-10-04_11h54.56.695,visual search task,2024.1.5,None,2024-10-04 11h55.07.104005 +0530,
156,0,156,0,297.74725639999997,,297.7029002999998,5,297.74725639999997,297.74725639999997,0.02346239999997124,298.7624073999996,299.58095449999973,[0.2109375],[-0.3255208333333333],[1],[0],[0],[1.8554662000001372],['target'],237628,001,2024-10-04_11h54.56.695,visual search task,2024.1.5,None,2024-10-04 11h55.07.104005 +0530,
157,0,157,0,299.6303863999997,,299.5862334999997,5,299.6303863999997,299.6303863999997,0.022549199999957636,300.6457677999997,301.68085459999975,[-0.4244791666666667],[-0.3619791666666667],[1],[0],[0],[2.072763699999996],['target'],237628,001,2024-10-04_11h54.56.695,visual search task,2024.1.5,None,2024-10-04 11h55.07.104005 +0530,
158,0,158,0,301.76291699999956,,301.68637679999983,10,301.76291699999956,301.76291699999956,0.04396970000016154,302.7955616999998,303.5975443999996,[-0.1015625],[0.2916666666666667],[1],[0],[0],[1.8679234999999608],['target'],237628,001,2024-10-04_11h54.56.695,visual search task,2024.1.5,None,2024-10-04 11h55.07.104005 +0530,
159,0,159,0,303.64548719999993,,303.6030725999999,5,303.64548719999993,303.64548719999993,0.02293759999975009,304.64532529999997,304.93054919999986,[-0.21875],[0.041666666666666664],[1],[0],[0],[1.3052784999999858],['target'],237628,001,2024-10-04_11h54.56.695,visual search task,2024.1.5,None,2024-10-04 11h55.07.104005 +0530,
160,0,160,0,304.9787922999999,,304.9345159999998,5,304.9787922999999,304.9787922999999,0.017363599999953294,305.9787385999998,307.7971593999996,[0.4283854166666667],[0.18880208333333334],[1],[0],[0],[2.845643200000268],['target'],237628,001,2024-10-04_11h54.56.695,visual search task,2024.1.5,None,2024-10-04 11h55.07.104005 +0530,
161,0,161,0,307.8621215999997,,307.80135859999973,10,307.8621215999997,307.8621215999997,0.03354639999997744,308.89541249999957,310.1640941999999,[-0.0390625],[0.15885416666666666],[1],[0],[0],[2.329576999999972],[],237628,001,2024-10-04_11h54.56.695,visual search task,2024.1.5,None,2024-10-04 11h55.07.104005 +0530,
162,0,162,0,310.22937399999955,,310.1695196999999,10,310.22937399999955,310.22937399999955,0.03435369999988325,311.26219219999984,312.3801018999998,[0.22135416666666666],[-0.30078125],[1],[0],[0],[2.176895699999932],['target'],237628,001,2024-10-04_11h54.56.695,visual search task,2024.1.5,None,2024-10-04 11h55.07.104005 +0530,
163,0,163,0,312.4620663999999,,312.38564369999995,10,312.4620663999999,312.4620663999999,0.04412700000011682,313.49552159999985,314.0967671999997,[-0.19921875],[0.08854166666666667],[1],[0],[0],[1.6677694999998494],['target'],237628,001,2024-10-04_11h54.56.695,visual search task,2024.1.5,None,2024-10-04 11h55.07.104005 +0530,
164,0,164,0,314.1452025999997,,314.10229169999957,5,314.1452025999997,314.1452025999997,0.022485500000129832,315.14518769999995,316.21323319999965,[0.18880208333333334],[0.040364583333333336],[1],[0],[0],[2.089169099999708],['target'],237628,001,2024-10-04_11h54.56.695,visual search task,2024.1.5,None,2024-10-04 11h55.07.104005 +0530,
165,0,165,0,316.2630237999997,,316.2185959999997,5,316.2630237999997,316.2630237999997,0.0230108000000655,317.2783655999997,318.4466301999996,[0.11458333333333333],[-0.22135416666666666],[1],[0],[0],[2.205791599999884],['target'],237628,001,2024-10-04_11h54.56.695,visual search task,2024.1.5,None,2024-10-04 11h55.07.104005 +0530,
166,0,166,0,318.49634389999983,,318.45083429999977,5,318.49634389999983,318.49634389999983,0.017456600000059552,319.51162689999956,320.5961984999999,[-0.12890625],[0.3346354166666667],[1],[0],[0],[2.1284787999998116],['target'],237628,001,2024-10-04_11h54.56.695,visual search task,2024.1.5,None,2024-10-04 11h55.07.104005 +0530,
167,0,167,0,320.6623738999997,,320.60099279999986,10,320.6623738999997,320.6623738999997,0.03341920000002574,321.69514449999997,324.11737089999997,[0.17317708333333334],[-0.2421875],[1],[0],[0],[3.4831632999998874],[],237628,001,2024-10-04_11h54.56.695,visual search task,2024.1.5,None,2024-10-04 11h55.07.104005 +0530,
168,0,168,0,324.1783601999996,,324.1247277999996,5,324.1783601999996,324.1783601999996,0.03414780000002793,325.2116560999998,326.18087149999974,[-0.29296875],[0.2526041666666667],[1],[0],[0],[2.0228139000000738],['target'],237628,001,2024-10-04_11h54.56.695,visual search task,2024.1.5,None,2024-10-04 11h55.07.104005 +0530,
169,0,169,0,326.3127282999999,,326.1902962999998,10,326.3127282999999,326.3127282999999,0.07840090000036071,327.3616728999996,328.0305447999999,[0.3450520833333333],[0.041666666666666664],[1],[0],[0],[1.7631710000000567],['target'],237628,001,2024-10-04_11h54.56.695,visual search task,2024.1.5,None,2024-10-04 11h55.07.104005 +0530,
170,0,170,0,328.1122651999999,,328.0365281999998,10,328.1122651999999,328.1122651999999,0.04782320000003892,329.14488389999997,330.3805705,[-0.39453125],[0.2643229166666667],[1],[0],[0],[2.296660299999985],['target'],237628,001,2024-10-04_11h54.56.695,visual search task,2024.1.5,None,2024-10-04 11h55.07.104005 +0530,
171,0,171,0,330.4449932999996,,330.3872745999997,5,330.4449932999996,330.4449932999996,0.03211600000031467,331.4448622,331.8136370999996,[0.14453125],[-0.01953125],[1],[0],[0],[1.3951609999999164],['target'],237628,001,2024-10-04_11h54.56.695,visual search task,2024.1.5,None,2024-10-04 11h55.07.104005 +0530,
172,0,172,0,331.86134619999984,,331.8198385999999,5,331.86134619999984,331.86134619999984,0.024938400000337424,332.8949591999999,340.1178528999999,[-0.005208333333333333],[-0.057291666666666664],[1],[0],[0],[8.272714199999882],[],237628,001,2024-10-04_11h54.56.695,visual search task,2024.1.5,None,2024-10-04 11h55.07.104005 +0530,
173,0,173,0,340.2456823999996,,340.1278207999999,10,340.2456823999996,340.2456823999996,0.07861039999988861,,340.5465396999998,[-0.005208333333333333],[-0.057291666666666664],[1],[0],[0],[0.3416011000003891],[],237628,001,2024-10-04_11h54.56.695,visual search task,2024.1.5,None,2024-10-04 11h55.07.104005 +0530,
174,0,174,0,340.62805009999965,,340.55539839999983,5,340.62805009999965,340.62805009999965,0.03711100000009537,341.6445474999996,343.0808608999996,[-0.2994791666666667],[0.4466145833333333],[1],[0],[0],[2.489589799999976],['target'],237628,001,2024-10-04_11h54.56.695,visual search task,2024.1.5,None,2024-10-04 11h55.07.104005 +0530,
175,0,175,0,343.14515429999983,,343.0897640999997,5,343.14515429999983,343.14515429999983,0.029704099999889877,344.1779660999996,344.3136847999999,[-0.22005208333333334],[0.2578125],[1],[0],[0],[1.1956900999998652],['target'],237628,001,2024-10-04_11h54.56.695,visual search task,2024.1.5,None,2024-10-04 11h55.07.104005 +0530,
176,0,176,0,344.3946324999997,,344.3224353999999,5,344.3946324999997,344.3946324999997,0.036929500000042026,345.4110406,345.54661199999964,[-0.4244791666666667],[0.3229166666666667],[1],[0],[0],[1.1886168999999427],['target'],237628,001,2024-10-04_11h54.56.695,visual search task,2024.1.5,None,2024-10-04 11h55.07.104005 +0530,
177,0,177,0,345.6117704999997,,345.55438879999974,5,345.6117704999997,345.6117704999997,0.03180709999969622,346.6278376999999,347.7972756999998,[0.2734375],[-0.036458333333333336],[1],[0],[0],[2.211772699999983],['target'],237628,001,2024-10-04_11h54.56.695,visual search task,2024.1.5,None,2024-10-04 11h55.07.104005 +0530,
178,0,178,0,347.9119556999999,,347.8053534999999,10,347.9119556999999,347.9119556999999,0.06586460000016814,349.0285905999999,348.9128344999999,[0.26171875],[0.045572916666666664],[1],[0],[0],[1.0430231000000276],['target'],237628,001,2024-10-04_11h54.56.695,visual search task,2024.1.5,None,2024-10-04 11h55.07.104005 +0530,
179,0,179,0,349.0285905999999,,348.92079839999997,10,349.0285905999999,349.0285905999999,0.06410419999974692,350.0443762,351.0964515999999,[0.4713541666666667],[0.2734375],[1],[0],[0],[2.1126131000000896],['target'],237628,001,2024-10-04_11h54.56.695,visual search task,2024.1.5,None,2024-10-04 11h55.07.104005 +0530,
180,0,180,0,351.1617246999999,,351.10491139999976,5,351.1617246999999,351.1617246999999,0.03315599999996266,352.19437739999967,352.3633612999997,[0.12369791666666667],[0.14192708333333334],[1],[0],[0],[1.226524800000334],['target'],237628,001,2024-10-04_11h54.56.695,visual search task,2024.1.5,None,2024-10-04 11h55.07.104005 +0530,
181,0,181,0,352.4951764999996,,352.3744407999998,10,352.4951764999996,352.4951764999996,0.07815610000034212,353.51106849999996,355.1459697999999,[0.2265625],[-0.4270833333333333],[1],[0],[0],[2.694966900000054],['target'],237628,001,2024-10-04_11h54.56.695,visual search task,2024.1.5,None,2024-10-04 11h55.07.104005 +0530,
182,0,182,0,355.2110402999997,,355.1528771999997,5,355.2110402999997,355.2110402999997,0.035573999999996886,356.2107563999998,356.29648949999955,[0.14192708333333334],[0.12369791666666667],[1],[0],[0],[1.1092346000000362],['target'],237628,001,2024-10-04_11h54.56.695,visual search task,2024.1.5,None,2024-10-04 11h55.07.104005 +0530,
183,0,183,0,356.3615325999999,,356.30533069999956,5,356.3615325999999,356.3615325999999,0.03157469999996465,357.39414639999995,357.7298802999999,[-0.4270833333333333],[-0.3307291666666667],[1],[0],[0],[1.3943242999998802],['target'],237628,001,2024-10-04_11h54.56.695,visual search task,2024.1.5,None,2024-10-04 11h55.07.104005 +0530,
184,0,184,0,357.79405559999987,,357.7386615999999,5,357.79405559999987,357.79405559999987,0.03314430000000357,358.8106660999997,359.16231709999965,[0.07552083333333333],[-0.296875],[1],[0],[0],[1.3918401000000813],[],237628,001,2024-10-04_11h54.56.695,visual search task,2024.1.5,None,2024-10-04 11h55.07.104005 +0530,
185,0,185,0,359.2446431999997,,359.1681688999997,10,359.2446431999997,359.2446431999997,0.047888200000215875,360.26090099999965,360.3963080999997,[-0.15234375],[0.22916666666666666],[1],[0],[0],[1.1806797999997798],['target'],237628,001,2024-10-04_11h54.56.695,visual search task,2024.1.5,None,2024-10-04 11h55.07.104005 +0530,
186,0,186,0,360.5115576999997,,360.40528319999976,10,360.5115576999997,360.5115576999997,0.06874890000017331,361.54402359999995,361.8463112999998,[-0.4752604166666667],[-0.08333333333333333],[1],[0],[0],[1.373613700000078],['target'],237628,001,2024-10-04_11h54.56.695,visual search task,2024.1.5,None,2024-10-04 11h55.07.104005 +0530,
187,0,187,0,361.9274954999996,,361.85567439999977,5,361.9274954999996,361.9274954999996,0.03883719999976165,362.96083799999997,363.46280179999985,[0.3697916666666667],[-0.27734375],[1],[0],[0],[1.5697580999999445],['target'],237628,001,2024-10-04_11h54.56.695,visual search task,2024.1.5,None,2024-10-04 11h55.07.104005 +0530,
188,0,188,0,363.54456029999983,,363.4719750999998,5,363.54456029999983,363.54456029999983,0.039449100000183535,364.57728989999987,364.8634474999999,[-0.3515625],[0.15104166666666666],[1],[0],[0],[1.3534790999997313],['target'],237628,001,2024-10-04_11h54.56.695,visual search task,2024.1.5,None,2024-10-04 11h55.07.104005 +0530,
189,0,189,0,364.97810489999983,,364.8729364999999,10,364.97810489999983,364.97810489999983,0.07411169999977574,365.99414869999964,367.478709,[0.08854166666666667],[0.3697916666666667],[1],[0],[0],[2.5336200000001554],['target'],237628,001,2024-10-04_11h54.56.695,visual search task,2024.1.5,None,2024-10-04 11h55.07.104005 +0530,
190,0,190,0,367.57774819999986,,367.48548759999994,10,367.57774819999986,367.57774819999986,0.05747589999964475,368.61046039999974,369.67870949999997,[0.08333333333333333],[-0.421875],[1],[0],[0],[2.136917799999992],['target'],237628,001,2024-10-04_11h54.56.695,visual search task,2024.1.5,None,2024-10-04 11h55.07.104005 +0530,
191,0,191,0,369.7269332999999,,369.6841095,5,369.7269332999999,369.7269332999999,0.023279099999854225,370.7269293999998,370.82892049999964,[-0.2630208333333333],[-0.10677083333333333],[1],[0],[0],[1.1222373000000516],['target'],237628,001,2024-10-04_11h54.56.695,visual search task,2024.1.5,None,2024-10-04 11h55.07.104005 +0530,
192,0,192,0,370.87687589999996,,370.83425199999965,5,370.87687589999996,370.87687589999996,0.02288330000010319,371.8768527999996,372.14799649999986,[-0.010416666666666666],[0.21744791666666666],[1],[0],[0],[1.2913562000003367],[],237628,001,2024-10-04_11h54.56.695,visual search task,2024.1.5,None,2024-10-04 11h55.07.104005 +0530,
193,0,193,0,372.27776399999993,,372.1574384999999,10,372.27776399999993,372.27776399999993,0.07204019999971933,373.3101939999997,373.4788900999997,[-0.32421875],[0.35546875],[1],[0],[0],[1.2511592999999266],['target'],237628,001,2024-10-04_11h54.56.695,visual search task,2024.1.5,None,2024-10-04 11h55.07.104005 +0530,
194,0,194,0,373.56018509999967,,373.4843944999998,10,373.56018509999967,373.56018509999967,0.044814299999870855,374.5937743999998,374.69498969999995,[0.18229166666666666],[0.17838541666666666],[1],[0],[0],[1.166473500000393],['target'],237628,001,2024-10-04_11h54.56.695,visual search task,2024.1.5,None,2024-10-04 11h55.07.104005 +0530,
195,0,195,0,374.74370629999976,,374.7005842999997,5,374.74370629999976,374.74370629999976,0.024167600000055245,375.74346019999984,375.8959968999998,[-0.21223958333333334],[0.2552083333333333],[1],[0],[0],[1.172065599999769],['target'],237628,001,2024-10-04_11h54.56.695,visual search task,2024.1.5,None,2024-10-04 11h55.07.104005 +0530,
196,0,196,0,375.9774643999999,,375.9014229999998,10,375.9774643999999,375.9774643999999,0.04442830000016329,377.0101047999997,377.41135559999975,[0.3815104166666667],[0.0078125],[1],[0],[0],[1.4662045999998554],['target'],237628,001,2024-10-04_11h54.56.695,visual search task,2024.1.5,None,2024-10-04 11h55.07.104005 +0530,
197,0,197,0,377.4767145999999,,377.41667709999956,10,377.4767145999999,377.4767145999999,0.03485270000010132,378.51006099999995,379.0454689999997,[-0.16796875],[0.25],[1],[0],[0],[1.594624500000009],['target'],237628,001,2024-10-04_11h54.56.695,visual search task,2024.1.5,None,2024-10-04 11h55.07.104005 +0530,
198,0,198,0,379.12734239999963,,379.0510119999999,10,379.12734239999963,379.12734239999963,0.045787900000050286,380.16012249999994,380.9282151999996,[0.2109375],[-0.03515625],[1],[0],[0],[1.832153500000004],['target'],237628,001,2024-10-04_11h54.56.695,visual search task,2024.1.5,None,2024-10-04 11h55.07.104005 +0530,
199,0,199,0,380.97657579999986,,380.93362149999984,5,380.97657579999986,380.97657579999986,0.02288280000038867,381.9765582,382.2793429999997,[-0.10286458333333333],[-0.22395833333333334],[1],[0],[0],[1.3234797000000071],['target'],237628,001,2024-10-04_11h54.56.695,visual search task,2024.1.5,None,2024-10-04 11h55.07.104005 +0530,
