trials.thisRepN,trials.thisTrialN,trials.thisN,trials.thisIndex,thisRow.t,notes,trial.started,num_distr,fixation.started,target.started,mouse.started,fixation.stopped,trial.stopped,mouse.x,mouse.y,mouse.leftButton,mouse.midButton,mouse.rightButton,mouse.time,mouse.clicked_name,participant,session,date,expName,psychopyVersion,frameRate,expStart,
0,0,0,0,0.08710010000004331,,0.014175499999964813,5,0.08710010000004331,0.08710010000004331,0.049538299999994706,1.1044156000000385,2.730057600000009,[0.3307291666666667],[-0.3997395833333333],[1],[0],[0],[2.6797061000000895],['target'],243053,001,2024-10-04_11h08.34.607,visual search task,2024.1.5,None,2024-10-04 11h08.44.348194 +0530,
1,0,1,0,2.887048899999968,,2.7452213000000256,5,2.887048899999968,2.887048899999968,0.12268299999993815,3.9210229000000254,5.2410151999999925,[0.4505208333333333],[-0.07421875],[1],[0],[0],[2.374669400000016],['target'],243053,001,2024-10-04_11h08.34.607,visual search task,2024.1.5,None,2024-10-04 11h08.44.348194 +0530,
2,0,2,0,5.320361400000024,,5.251323100000036,10,5.320361400000024,5.320361400000024,0.043838700000037534,6.322104500000023,7.60617179999997,[0.4791666666666667],[0.4270833333333333],[1],[0],[0],[2.3127850000000763],['target'],243053,001,2024-10-04_11h08.34.607,visual search task,2024.1.5,None,2024-10-04 11h08.44.348194 +0530,
3,0,3,0,7.686951499999964,,7.618651600000021,10,7.686951499999964,7.686951499999964,0.04839110000000346,8.72071840000001,9.239279499999952,[-0.09114583333333333],[0.11848958333333333],[1],[0],[0],[1.57432330000006],['target'],243053,001,2024-10-04_11h08.34.607,visual search task,2024.1.5,None,2024-10-04 11h08.44.348194 +0530,
4,0,4,0,9.303702000000044,,9.247069399999987,10,9.303702000000044,9.303702000000044,0.040981399999964196,10.321388400000046,11.073558100000014,[-0.20963541666666666],[-0.4427083333333333],[1],[0],[0],[1.7862514999999348],['target'],243053,001,2024-10-04_11h08.34.607,visual search task,2024.1.5,None,2024-10-04 11h08.44.348194 +0530,
5,0,5,0,11.153579899999954,,11.083758200000034,10,11.153579899999954,11.153579899999954,0.042552999999998065,12.203622900000028,12.524046399999975,[-0.12369791666666667],[-0.3385416666666667],[1],[0],[0],[1.3990307000000257],['target'],243053,001,2024-10-04_11h08.34.607,visual search task,2024.1.5,None,2024-10-04 11h08.44.348194 +0530,
6,0,6,0,12.636995100000036,,12.535752200000047,10,12.636995100000036,12.636995100000036,0.06095519999996668,13.67040350000002,13.740606500000013,[-0.05859375],[-0.16015625],[1],[0],[0],[1.1452489000000696],['target'],243053,001,2024-10-04_11h08.34.607,visual search task,2024.1.5,None,2024-10-04 11h08.44.348194 +0530,
7,0,7,0,13.786790399999973,,13.750568499999986,5,13.786790399999973,13.786790399999973,0.02427069999998821,14.803908200000023,15.340954099999976,[0.4283854166666667],[0.04296875],[1],[0],[0],[1.5672352000000274],['target'],243053,001,2024-10-04_11h08.34.607,visual search task,2024.1.5,None,2024-10-04 11h08.44.348194 +0530,
8,0,8,0,15.436955300000022,,15.351129199999946,10,15.436955300000022,15.436955300000022,0.05341929999997319,16.472729999999956,16.993821900000057,[0.28515625],[-0.33203125],[1],[0],[0],[1.5912968999999748],['target'],243053,001,2024-10-04_11h08.34.607,visual search task,2024.1.5,None,2024-10-04 11h08.44.348194 +0530,
9,0,9,0,17.070074100000056,,17.005185200000028,10,17.070074100000056,17.070074100000056,0.04030479999994441,18.08683289999999,18.70697629999995,[0.1640625],[0.19401041666666666],[1],[0],[0],[1.6625917999999729],['target'],243053,001,2024-10-04_11h08.34.607,visual search task,2024.1.5,None,2024-10-04 11h08.44.348194 +0530,
10,0,10,0,18.754735299999993,,18.71924530000001,5,18.754735299999993,18.754735299999993,0.02450839999994514,19.787123500000007,20.324000299999966,[-0.08984375],[-0.024739583333333332],[1],[0],[0],[1.581776600000012],['target'],243053,001,2024-10-04_11h08.34.607,visual search task,2024.1.5,None,2024-10-04 11h08.44.348194 +0530,
11,0,11,0,20.387713100000042,,20.334220200000004,5,20.387713100000042,20.387713100000042,0.032743600000003426,21.40596149999999,22.073589200000015,[-0.24869791666666666],[0.25390625],[1],[0],[0],[1.7083152000000155],['target'],243053,001,2024-10-04_11h08.34.607,visual search task,2024.1.5,None,2024-10-04 11h08.44.348194 +0530,
12,0,12,0,22.123424900000032,,22.084121800000048,5,22.123424900000032,22.123424900000032,0.028929099999913888,23.15375370000004,23.656898899999987,[0.3723958333333333],[0.20703125],[1],[0],[0],[1.5456532000000607],['target'],243053,001,2024-10-04_11h08.34.607,visual search task,2024.1.5,None,2024-10-04 11h08.44.348194 +0530,
13,0,13,0,23.736790799999994,,23.66753659999995,10,23.736790799999994,23.736790799999994,0.045172699999966426,24.740832299999965,24.972000999999977,[-0.4765625],[0.1328125],[1],[0],[0],[1.260909199999901],['target'],243053,001,2024-10-04_11h08.34.607,visual search task,2024.1.5,None,2024-10-04 11h08.44.348194 +0530,
14,0,14,0,25.036436699999967,,24.97642140000005,10,25.036436699999967,25.036436699999967,0.03540239999995265,26.069888300000002,26.922547200000054,[-0.4609375],[-0.4453125],[1],[0],[0],[1.9112251000000242],['target'],243053,001,2024-10-04_11h08.34.607,visual search task,2024.1.5,None,2024-10-04 11h08.44.348194 +0530,
15,0,15,0,26.969909700000017,,26.92852430000005,5,26.969909700000017,26.969909700000017,0.025138999999967382,27.987121399999978,28.48955000000001,[-0.014322916666666666],[0.2604166666666667],[1],[0],[0],[1.5361807000000454],['target'],243053,001,2024-10-04_11h08.34.607,visual search task,2024.1.5,None,2024-10-04 11h08.44.348194 +0530,
16,0,16,0,28.586505699999975,,28.49965199999997,10,28.586505699999975,28.586505699999975,0.0649110000000519,29.60353889999999,31.005633699999976,[0.4934895833333333],[-0.4817708333333333],[1],[0],[0],[2.4426482999999735],['target'],243053,001,2024-10-04_11h08.34.607,visual search task,2024.1.5,None,2024-10-04 11h08.44.348194 +0530,
17,0,17,0,31.086404900000048,,31.016638599999965,10,31.086404900000048,31.086404900000048,0.04965200000003733,32.120064100000036,32.79018189999999,[-0.02734375],[-0.2421875],[1],[0],[0],[1.725242699999967],['target'],243053,001,2024-10-04_11h08.34.607,visual search task,2024.1.5,None,2024-10-04 11h08.44.348194 +0530,
18,0,18,0,32.85328709999999,,32.800466099999994,5,32.85328709999999,32.85328709999999,0.027674599999954808,33.86984259999997,35.372250099999974,[0.2669270833333333],[0.4440104166666667],[1],[0],[0],[2.545776200000091],['target'],243053,001,2024-10-04_11h08.34.607,visual search task,2024.1.5,None,2024-10-04 11h08.44.348194 +0530,
19,0,19,0,35.45281209999996,,35.38249459999997,10,35.45281209999996,35.45281209999996,0.04495839999992768,36.46955509999998,37.138765600000056,[0.1953125],[-0.2942708333333333],[1],[0],[0],[1.7125261999999566],['target'],243053,001,2024-10-04_11h08.34.607,visual search task,2024.1.5,None,2024-10-04 11h08.44.348194 +0530,
20,0,20,0,37.236288700000046,,37.151240400000006,10,37.236288700000046,37.236288700000046,0.06666290000009667,38.24044709999998,39.224130299999956,[-0.3580729166666667],[0.3033854166666667],[1],[0],[0],[2.0080443999999034],['target'],243053,001,2024-10-04_11h08.34.607,visual search task,2024.1.5,None,2024-10-04 11h08.44.348194 +0530,
21,0,21,0,39.27095069999996,,39.23455469999999,5,39.27095069999996,39.27095069999996,0.025118299999917326,40.30322460000002,40.90703259999998,[0.2578125],[-0.3580729166666667],[1],[0],[0],[1.6488961999999674],['target'],243053,001,2024-10-04_11h08.34.607,visual search task,2024.1.5,None,2024-10-04 11h08.44.348194 +0530,
22,0,22,0,41.002890800000046,,40.917329600000016,10,41.002890800000046,41.002890800000046,0.05709820000004129,42.021567300000015,42.72439710000003,[-0.3268229166666667],[-0.3776041666666667],[1],[0],[0],[1.7517024999999649],['target'],243053,001,2024-10-04_11h08.34.607,visual search task,2024.1.5,None,2024-10-04 11h08.44.348194 +0530,
23,0,23,0,42.76926400000002,,42.729184799999985,5,42.76926400000002,42.76926400000002,0.018908799999962866,43.803066700000045,44.205818799999975,[-0.3515625],[0.14713541666666666],[1],[0],[0],[1.4577829999999494],['target'],243053,001,2024-10-04_11h08.34.607,visual search task,2024.1.5,None,2024-10-04 11h08.44.348194 +0530,
24,0,24,0,44.26934819999997,,44.216358900000046,5,44.26934819999997,44.26934819999997,0.029257600000050843,45.302995099999976,45.873200999999995,[0.11197916666666667],[-0.4427083333333333],[1],[0],[0],[1.6289877000000388],['target'],243053,001,2024-10-04_11h08.34.607,visual search task,2024.1.5,None,2024-10-04 11h08.44.348194 +0530,
25,0,25,0,45.95246999999995,,45.88359539999999,10,45.95246999999995,45.95246999999995,0.046081299999968905,46.98592069999995,47.85642710000002,[0.13671875],[-0.3177083333333333],[1],[0],[0],[1.9284543999999642],['target'],243053,001,2024-10-04_11h08.34.607,visual search task,2024.1.5,None,2024-10-04 11h08.44.348194 +0530,
26,0,26,0,47.9192084,,47.86610029999997,5,47.9192084,47.9192084,0.03261650000001737,48.91964199999995,49.806925800000045,[0.44921875],[0.3776041666666667],[1],[0],[0],[1.9091944000000467],['target'],243053,001,2024-10-04_11h08.34.607,visual search task,2024.1.5,None,2024-10-04 11h08.44.348194 +0530,
27,0,27,0,49.85467940000001,,49.816754400000036,5,49.85467940000001,49.85467940000001,0.026873399999999492,50.90305650000005,51.273780800000054,[0.19661458333333334],[0.08854166666666667],[1],[0],[0],[1.431279399999994],['target'],243053,001,2024-10-04_11h08.34.607,visual search task,2024.1.5,None,2024-10-04 11h08.44.348194 +0530,
28,0,28,0,51.35237700000005,,51.28407979999997,10,51.35237700000005,51.35237700000005,0.04448360000003504,52.356651599999964,54.50615830000004,[-0.3697916666666667],[0.3984375],[1],[0],[0],[3.17916409999998],['target'],243053,001,2024-10-04_11h08.34.607,visual search task,2024.1.5,None,2024-10-04 11h08.44.348194 +0530,
29,0,29,0,54.58562830000005,,54.51795679999998,10,54.58562830000005,54.58562830000005,0.04263760000003458,55.61923809999996,56.07143410000003,[0.2799479166666667],[-0.24739583333333334],[1],[0],[0],[1.5123297000000093],['target'],243053,001,2024-10-04_11h08.34.607,visual search task,2024.1.5,None,2024-10-04 11h08.44.348194 +0530,
30,0,30,0,56.152184799999986,,56.08124669999995,10,56.152184799999986,56.152184799999986,0.043517899999983456,57.16944530000001,58.13733179999997,[0.3450520833333333],[-0.44921875],[1],[0],[0],[2.0139427999999953],['target'],243053,001,2024-10-04_11h08.34.607,visual search task,2024.1.5,None,2024-10-04 11h08.44.348194 +0530,
31,0,31,0,58.20230479999998,,58.142626800000016,10,58.20230479999998,58.20230479999998,0.036581200000000536,59.23601210000004,59.991924400000016,[-0.30859375],[0.15755208333333334],[1],[0],[0],[1.8131859999999733],['target'],243053,001,2024-10-04_11h08.34.607,visual search task,2024.1.5,None,2024-10-04 11h08.44.348194 +0530,
32,0,32,0,60.05202029999998,,59.99600899999996,10,60.05202029999998,60.05202029999998,0.0349709999999277,61.054695599999945,62.80710859999999,[-0.140625],[0.4622395833333333],[1],[0],[0],[2.7758781999999655],['target'],243053,001,2024-10-04_11h08.34.607,visual search task,2024.1.5,None,2024-10-04 11h08.44.348194 +0530,
33,0,33,0,62.8854278,,62.81706250000002,10,62.8854278,62.8854278,0.04089380000004894,63.91923399999996,64.70943290000002,[0.08984375],[-0.23958333333333334],[1],[0],[0],[1.853106700000012],['target'],243053,001,2024-10-04_11h08.34.607,visual search task,2024.1.5,None,2024-10-04 11h08.44.348194 +0530,
34,0,34,0,64.80231170000002,,64.7199286,10,64.80231170000002,64.80231170000002,0.052488100000005034,65.81901600000003,66.92133960000001,[0.08463541666666667],[0.125],[1],[0],[0],[2.150059599999963],['target'],243053,001,2024-10-04_11h08.34.607,visual search task,2024.1.5,None,2024-10-04 11h08.44.348194 +0530,
35,0,35,0,66.98543519999998,,66.93155190000004,5,66.98543519999998,66.98543519999998,0.03501490000007834,68.00528380000003,68.75589839999998,[0.2734375],[-0.16927083333333334],[1],[0],[0],[1.7905588999999509],['target'],243053,001,2024-10-04_11h08.34.607,visual search task,2024.1.5,None,2024-10-04 11h08.44.348194 +0530,
36,0,36,0,68.83515850000003,,68.76598130000002,10,68.83515850000003,68.83515850000003,0.04294720000007146,69.8523328,70.25456510000004,[0.045572916666666664],[0.3151041666666667],[1],[0],[0],[1.4468039000000772],['target'],243053,001,2024-10-04_11h08.34.607,visual search task,2024.1.5,None,2024-10-04 11h08.44.348194 +0530,
37,0,37,0,70.30185949999998,,70.26465029999997,5,70.30185949999998,70.30185949999998,0.025331000000051063,71.33567400000004,71.90607279999995,[-0.04296875],[-0.19270833333333334],[1],[0],[0],[1.6175034000000323],['target'],243053,001,2024-10-04_11h08.34.607,visual search task,2024.1.5,None,2024-10-04 11h08.44.348194 +0530,
38,0,38,0,71.98502780000001,,71.91593420000004,10,71.98502780000001,71.98502780000001,0.04322539999998298,73.01918899999998,74.30452700000001,[-0.4453125],[-0.3216145833333333],[1],[0],[0],[2.3468685999999934],['target'],243053,001,2024-10-04_11h08.34.607,visual search task,2024.1.5,None,2024-10-04 11h08.44.348194 +0530,
39,0,39,0,74.3516548,,74.3115421,5,74.3516548,74.3516548,0.021061899999949674,75.37149590000001,76.12296309999999,[-0.22135416666666666],[0.028645833333333332],[1],[0],[0],[1.7908614000000398],['target'],243053,001,2024-10-04_11h08.34.607,visual search task,2024.1.5,None,2024-10-04 11h08.44.348194 +0530,
40,0,40,0,76.20181749999995,,76.13323009999999,10,76.20181749999995,76.20181749999995,0.046326299999918774,77.23536660000002,77.68716719999998,[0.23828125],[0.08723958333333333],[1],[0],[0],[1.5092541999999867],['target'],243053,001,2024-10-04_11h08.34.607,visual search task,2024.1.5,None,2024-10-04 11h08.44.348194 +0530,
41,0,41,0,77.73621390000005,,77.69911890000003,5,77.73621390000005,77.73621390000005,0.026912300000049072,78.75216660000001,79.15531080000005,[0.3997395833333333],[0.3177083333333333],[1],[0],[0],[1.4309240999999702],['target'],243053,001,2024-10-04_11h08.34.607,visual search task,2024.1.5,None,2024-10-04 11h08.44.348194 +0530,
42,0,42,0,79.21852509999997,,79.16620939999996,5,79.21852509999997,79.21852509999997,0.029624399999988782,80.25221120000003,80.95590119999997,[0.4114583333333333],[-0.3723958333333333],[1],[0],[0],[1.761692499999981],['target'],243053,001,2024-10-04_11h08.34.607,visual search task,2024.1.5,None,2024-10-04 11h08.44.348194 +0530,
43,0,43,0,81.00499620000005,,80.96612600000003,5,81.00499620000005,81.00499620000005,0.02745119999997314,82.03546749999998,82.43889100000001,[0.13671875],[-0.12630208333333334],[1],[0],[0],[1.446518200000014],['target'],243053,001,2024-10-04_11h08.34.607,visual search task,2024.1.5,None,2024-10-04 11h08.44.348194 +0530,
44,0,44,0,82.55165020000004,,82.4491898,10,82.55165020000004,82.55165020000004,0.0751357999999982,83.56844460000002,83.63680450000004,[0.2890625],[-0.1875],[1],[0],[0],[1.1139716000000135],['target'],243053,001,2024-10-04_11h08.34.607,visual search task,2024.1.5,None,2024-10-04 11h08.44.348194 +0530,
45,0,45,0,83.71824260000005,,83.64255390000005,10,83.71824260000005,83.71824260000005,0.0553272999999308,84.7350242,84.90685889999997,[-0.1171875],[-0.06640625],[1],[0],[0],[1.2094412999999804],['target'],243053,001,2024-10-04_11h08.34.607,visual search task,2024.1.5,None,2024-10-04 11h08.44.348194 +0530,
46,0,46,0,84.95116680000001,,84.91574309999999,5,84.95116680000001,84.95116680000001,0.02396940000005543,85.96862109999995,86.37100950000001,[-0.22526041666666666],[0.36328125],[1],[0],[0],[1.432462600000008],['target'],243053,001,2024-10-04_11h08.34.607,visual search task,2024.1.5,None,2024-10-04 11h08.44.348194 +0530,
47,0,47,0,86.45149079999999,,86.37818010000001,10,86.45149079999999,86.45149079999999,0.04945899999995618,87.46806609999999,87.61979840000004,[-0.14453125],[0.2421875],[1],[0],[0],[1.1929821999999604],['target'],243053,001,2024-10-04_11h08.34.607,visual search task,2024.1.5,None,2024-10-04 11h08.44.348194 +0530,
48,0,48,0,87.68464310000002,,87.62510120000002,10,87.68464310000002,87.68464310000002,0.03518880000001445,88.68900900000006,89.45412499999998,[0.4231770833333333],[-0.18619791666666666],[1],[0],[0],[1.7940032999999858],['target'],243053,001,2024-10-04_11h08.34.607,visual search task,2024.1.5,None,2024-10-04 11h08.44.348194 +0530,
49,0,49,0,89.51793640000005,,89.46017070000005,10,89.51793640000005,89.51793640000005,0.036797399999954905,90.53486580000003,91.15551989999994,[-0.036458333333333336],[-0.3177083333333333],[1],[0],[0],[1.6588203000000021],['target'],243053,001,2024-10-04_11h08.34.607,visual search task,2024.1.5,None,2024-10-04 11h08.44.348194 +0530,
50,0,50,0,91.20194949999996,,91.16583969999999,5,91.20194949999996,91.20194949999996,0.025304200000050514,92.21834679999995,93.0052392,[0.3619791666666667],[-0.4205729166666667],[1],[0],[0],[1.8153948000000355],['target'],243053,001,2024-10-04_11h08.34.607,visual search task,2024.1.5,None,2024-10-04 11h08.44.348194 +0530,
51,0,51,0,93.0681717,,93.01590829999998,5,93.0681717,93.0681717,0.029201199999988603,94.08770219999997,98.45553199999995,[0.4713541666666667],[-0.006510416666666667],[1],[0],[0],[5.411644899999942],['target'],243053,001,2024-10-04_11h08.34.607,visual search task,2024.1.5,None,2024-10-04 11h08.44.348194 +0530,
52,0,52,0,98.53426190000005,,98.46579770000005,10,98.53426190000005,98.53426190000005,0.04368039999997109,99.55120380000005,100.28791100000001,[-0.020833333333333332],[0.041666666666666664],[1],[0],[0],[1.7798546000000215],['target'],243053,001,2024-10-04_11h08.34.607,visual search task,2024.1.5,None,2024-10-04 11h08.44.348194 +0530,
53,0,53,0,100.33442520000006,,100.29552179999996,5,100.33442520000006,100.33442520000006,0.02264880000006997,101.36831059999997,102.10523899999998,[-0.4192708333333333],[-0.2864583333333333],[1],[0],[0],[1.7878098999999565],['target'],243053,001,2024-10-04_11h08.34.607,visual search task,2024.1.5,None,2024-10-04 11h08.44.348194 +0530,
54,0,54,0,102.16790890000004,,102.11563450000006,5,102.16790890000004,102.16790890000004,0.02921969999999874,103.20139670000003,103.60360649999996,[-0.053385416666666664],[-0.16145833333333334],[1],[0],[0],[1.4604229999999916],['target'],243053,001,2024-10-04_11h08.34.607,visual search task,2024.1.5,None,2024-10-04 11h08.44.348194 +0530,
55,0,55,0,103.68416090000005,,103.61392430000001,10,103.68416090000005,103.68416090000005,0.04455429999995886,104.71776409999995,105.23633080000002,[-0.5013020833333334],[-0.43359375],[1],[0],[0],[1.5789409999999862],[],243053,001,2024-10-04_11h08.34.607,visual search task,2024.1.5,None,2024-10-04 11h08.44.348194 +0530,
56,0,56,0,105.28438800000004,,105.24198899999999,5,105.28438800000004,105.28438800000004,0.02022990000000391,106.30159660000004,107.00469559999999,[0.4934895833333333],[-0.44921875],[1],[0],[0],[1.7428657000000385],['target'],243053,001,2024-10-04_11h08.34.607,visual search task,2024.1.5,None,2024-10-04 11h08.44.348194 +0530,
57,0,57,0,107.05496349999999,,107.01517420000005,5,107.05496349999999,107.05496349999999,0.02834989999996651,108.08458570000005,108.65447900000004,[0.4140625],[-0.19010416666666666],[1],[0],[0],[1.612429700000007],['target'],243053,001,2024-10-04_11h08.34.607,visual search task,2024.1.5,None,2024-10-04 11h08.44.348194 +0530,
58,0,58,0,108.71858840000004,,108.66489079999997,5,108.71858840000004,108.71858840000004,0.03719130000001769,109.73457670000005,110.67125169999997,[-0.38671875],[0.4375],[1],[0],[0],[1.9704639999999927],['target'],243053,001,2024-10-04_11h08.34.607,visual search task,2024.1.5,None,2024-10-04 11h08.44.348194 +0530,
59,0,59,0,110.75064239999995,,110.68396129999996,10,110.75064239999995,110.75064239999995,0.04592440000010356,111.7530994,112.76964180000004,[-0.3828125],[-0.3502604166666667],[1],[0],[0],[2.0414617000000135],['target'],243053,001,2024-10-04_11h08.34.607,visual search task,2024.1.5,None,2024-10-04 11h08.44.348194 +0530,
60,0,60,0,112.81729470000005,,112.77506370000003,5,112.81729470000005,112.81729470000005,0.01955129999998917,113.85164199999997,114.4556963,[0.4127604166666667],[-0.25390625],[1],[0],[0],[1.6613428000000567],['target'],243053,001,2024-10-04_11h08.34.607,visual search task,2024.1.5,None,2024-10-04 11h08.44.348194 +0530,
61,0,61,0,114.5340304,,114.46570169999995,10,114.5340304,114.5340304,0.04327279999995426,115.55327499999999,115.95378770000002,[0.26171875],[-0.022135416666666668],[1],[0],[0],[1.4459993000000395],['target'],243053,001,2024-10-04_11h08.34.607,visual search task,2024.1.5,None,2024-10-04 11h08.44.348194 +0530,
62,0,62,0,116.03414599999996,,115.96379760000002,10,116.03414599999996,116.03414599999996,0.04218269999989843,117.06735330000004,117.8398449,[-0.37890625],[-0.26171875],[1],[0],[0],[1.835223600000063],['target'],243053,001,2024-10-04_11h08.34.607,visual search task,2024.1.5,None,2024-10-04 11h08.44.348194 +0530,
63,0,63,0,117.90068629999996,,117.85232059999998,5,117.90068629999996,117.90068629999996,0.025079600000026403,118.90375259999996,119.18686170000001,[-0.048177083333333336],[-0.3255208333333333],[1],[0],[0],[1.3110070999999834],['target'],243053,001,2024-10-04_11h08.34.607,visual search task,2024.1.5,None,2024-10-04 11h08.44.348194 +0530,
64,0,64,0,119.2670326,,119.19714810000005,10,119.2670326,119.2670326,0.04425890000004529,120.27141180000001,120.8392996,[-0.06770833333333333],[-0.4518229166666667],[1],[0],[0],[1.5993447999999262],['target'],243053,001,2024-10-04_11h08.34.607,visual search task,2024.1.5,None,2024-10-04 11h08.44.348194 +0530,
65,0,65,0,120.88367349999999,,120.84551499999998,5,120.88367349999999,120.88367349999999,0.02002310000000307,121.91744470000003,122.12191129999997,[0.40625],[-0.08854166666666667],[1],[0],[0],[1.256800500000054],['target'],243053,001,2024-10-04_11h08.34.607,visual search task,2024.1.5,None,2024-10-04 11h08.44.348194 +0530,
66,0,66,0,122.18359759999998,,122.1323989,5,122.18359759999998,122.18359759999998,0.028139499999952022,123.20141550000005,123.67056479999997,[0.32421875],[-0.4778645833333333],[1],[0],[0],[1.5118290000000343],['target'],243053,001,2024-10-04_11h08.34.607,visual search task,2024.1.5,None,2024-10-04 11h08.44.348194 +0530,
67,0,67,0,123.75084049999998,,123.68099480000001,10,123.75084049999998,123.75084049999998,0.043702000000052976,124.78362949999996,125.60218610000004,[0.4166666666666667],[0.296875],[1],[0],[0],[1.8789582000000564],['target'],243053,001,2024-10-04_11h08.34.607,visual search task,2024.1.5,None,2024-10-04 11h08.44.348194 +0530,
68,0,68,0,125.653953,,125.61527709999996,5,125.653953,125.653953,0.028690999999980704,126.7007347,127.63798970000005,[-0.328125],[0.07161458333333333],[1],[0],[0],[1.9963639000000057],['target'],243053,001,2024-10-04_11h08.34.607,visual search task,2024.1.5,None,2024-10-04 11h08.44.348194 +0530,
69,0,69,0,127.68717189999995,,127.64819980000004,5,127.68717189999995,127.68717189999995,0.027691099999969992,128.73432560000003,129.77082229999996,[-0.15885416666666666],[0.4518229166666667],[1],[0],[0],[2.0962448000000222],['target'],243053,001,2024-10-04_11h08.34.607,visual search task,2024.1.5,None,2024-10-04 11h08.44.348194 +0530,
70,0,70,0,129.83638310000003,,129.780216,10,129.83638310000003,129.83638310000003,0.04045659999997042,130.85380250000003,131.53834500000005,[0.19140625],[-0.13151041666666666],[1],[0],[0],[1.7187177999999221],['target'],243053,001,2024-10-04_11h08.34.607,visual search task,2024.1.5,None,2024-10-04 11h08.44.348194 +0530,
71,0,71,0,131.5833748,,131.54282950000004,5,131.5833748,131.5833748,0.018344800000022587,132.60111940000002,133.27123319999998,[0.0026041666666666665],[0.3893229166666667],[1],[0],[0],[1.7100556000000324],['target'],243053,001,2024-10-04_11h08.34.607,visual search task,2024.1.5,None,2024-10-04 11h08.44.348194 +0530,
72,0,72,0,133.33362520000003,,133.28188439999997,5,133.33362520000003,133.33362520000003,0.028846700000030978,134.36722450000002,134.83829230000003,[0.3658854166666667],[-0.16927083333333334],[1],[0],[0],[1.5294258000000127],['target'],243053,001,2024-10-04_11h08.34.607,visual search task,2024.1.5,None,2024-10-04 11h08.44.348194 +0530,
73,0,73,0,134.8999725,,134.8491662,5,134.8999725,134.8999725,0.028151900000011665,135.9337415,136.17081310000003,[0.25390625],[0.16666666666666666],[1],[0],[0],[1.2952427999999827],['target'],243053,001,2024-10-04_11h08.34.607,visual search task,2024.1.5,None,2024-10-04 11h08.44.348194 +0530,
74,0,74,0,136.23353870000005,,136.18149359999995,5,136.23353870000005,136.23353870000005,0.02875800000003892,137.25066500000003,138.11923960000001,[-0.22135416666666666],[0.10026041666666667],[1],[0],[0],[1.9105323999999655],['target'],243053,001,2024-10-04_11h08.34.607,visual search task,2024.1.5,None,2024-10-04 11h08.44.348194 +0530,
75,0,75,0,138.19985629999996,,138.13018209999996,10,138.19985629999996,138.19985629999996,0.04485469999997349,139.21656240000004,139.57362950000004,[-0.4231770833333333],[-0.0078125],[1],[0],[0],[1.4004754000000048],['target'],243053,001,2024-10-04_11h08.34.607,visual search task,2024.1.5,None,2024-10-04 11h08.44.348194 +0530,
76,0,76,0,139.6500529,,139.58440110000004,10,139.6500529,139.6500529,0.04126930000006723,140.66698740000004,141.3184652,[-0.03515625],[0.34765625],[1],[0],[0],[1.6945699000000332],['target'],243053,001,2024-10-04_11h08.34.607,visual search task,2024.1.5,None,2024-10-04 11h08.44.348194 +0530,
77,0,77,0,141.38305820000005,,141.3252271,10,141.38305820000005,141.38305820000005,0.03801839999994172,142.40028889999996,142.98700140000005,[0.0026041666666666665],[-0.3658854166666667],[1],[0],[0],[1.6244673999999577],['target'],243053,001,2024-10-04_11h08.34.607,visual search task,2024.1.5,None,2024-10-04 11h08.44.348194 +0530,
78,0,78,0,143.0535724,,142.99716450000005,5,143.0535724,143.0535724,0.04243400000007114,144.10033969999995,144.97049589999995,[-0.10416666666666667],[-0.2552083333333333],[1],[0],[0],[1.932497499999954],['target'],243053,001,2024-10-04_11h08.34.607,visual search task,2024.1.5,None,2024-10-04 11h08.44.348194 +0530,
79,0,79,0,145.03317560000005,,144.98068839999996,5,145.03317560000005,145.03317560000005,0.02952620000007755,146.06649560000005,146.60380669999995,[-0.45703125],[0.4166666666666667],[1],[0],[0],[1.594867000000022],['target'],243053,001,2024-10-04_11h08.34.607,visual search task,2024.1.5,None,2024-10-04 11h08.44.348194 +0530,
80,0,80,0,146.6832015,,146.61455309999997,10,146.6832015,146.6832015,0.04236920000005284,147.70239530000003,148.23655029999998,[-0.01171875],[-0.11328125],[1],[0],[0],[1.5814345000000003],['target'],243053,001,2024-10-04_11h08.34.607,visual search task,2024.1.5,None,2024-10-04 11h08.44.348194 +0530,
81,0,81,0,148.29985079999994,,148.2499087,5,148.29985079999994,148.29985079999994,0.027515399999970214,149.30012180000006,150.05180570000005,[-0.3802083333333333],[-0.3880208333333333],[1],[0],[0],[1.7764198999999508],['target'],243053,001,2024-10-04_11h08.34.607,visual search task,2024.1.5,None,2024-10-04 11h08.44.348194 +0530,
82,0,82,0,150.09945589999995,,150.05677920000005,5,150.09945589999995,150.09945589999995,0.02187370000001465,151.10079580000001,151.8855307,[-0.41015625],[0.33203125],[1],[0],[0],[1.8072224000000006],['target'],243053,001,2024-10-04_11h08.34.607,visual search task,2024.1.5,None,2024-10-04 11h08.44.348194 +0530,
83,0,83,0,151.93539699999997,,151.8958447,5,151.93539699999997,151.93539699999997,0.028222300000038558,152.94950240000003,153.37063569999998,[-0.12760416666666666],[0.17838541666666666],[1],[0],[0],[1.4479886999999962],['target'],243053,001,2024-10-04_11h08.34.607,visual search task,2024.1.5,None,2024-10-04 11h08.44.348194 +0530,
84,0,84,0,153.41799879999996,,153.38143000000002,5,153.41799879999996,153.41799879999996,0.025670200000035948,154.4665953,154.93735089999996,[-0.0390625],[0.15494791666666666],[1],[0],[0],[1.531115899999918],['target'],243053,001,2024-10-04_11h08.34.607,visual search task,2024.1.5,None,2024-10-04 11h08.44.348194 +0530,
85,0,85,0,155.01626439999995,,154.94719650000002,10,155.01626439999995,155.01626439999995,0.044147799999905146,156.01906029999998,156.47024620000002,[-0.3072916666666667],[-0.20703125],[1],[0],[0],[1.4801429999999982],['target'],243053,001,2024-10-04_11h08.34.607,visual search task,2024.1.5,None,2024-10-04 11h08.44.348194 +0530,
86,0,86,0,156.51621020000005,,156.48015740000005,5,156.51621020000005,156.51621020000005,0.02385560000004716,157.54980479999995,157.82027670000002,[0.2838541666666667],[-0.28515625],[1],[0],[0],[1.3174544999999398],['target'],243053,001,2024-10-04_11h08.34.607,visual search task,2024.1.5,None,2024-10-04 11h08.44.348194 +0530,
87,0,87,0,157.89932610000005,,157.83081360000006,10,157.89932610000005,157.89932610000005,0.043867599999998674,158.91598850000003,160.05180759999996,[0.17838541666666666],[0.34375],[1],[0],[0],[2.178780999999958],['target'],243053,001,2024-10-04_11h08.34.607,visual search task,2024.1.5,None,2024-10-04 11h08.44.348194 +0530,
88,0,88,0,160.13252809999994,,160.0621311,10,160.13252809999994,160.13252809999994,0.04309000000000651,161.14965959999995,161.5706603,[0.3723958333333333],[0.03515625],[1],[0],[0],[1.4667742999999973],['target'],243053,001,2024-10-04_11h08.34.607,visual search task,2024.1.5,None,2024-10-04 11h08.44.348194 +0530,
89,0,89,0,161.64938240000004,,161.580599,10,161.64938240000004,161.64938240000004,0.0426162999999633,162.66587360000005,163.2521971,[0.4869791666666667],[-0.4453125],[1],[0],[0],[1.630288500000006],['target'],243053,001,2024-10-04_11h08.34.607,visual search task,2024.1.5,None,2024-10-04 11h08.44.348194 +0530,
90,0,90,0,163.30303479999998,,163.26405910000005,5,163.30303479999998,163.30303479999998,0.027537100000017745,164.34971440000004,164.9857644,[-0.4010416666666667],[-0.040364583333333336],[1],[0],[0],[1.6956764999999905],['target'],243053,001,2024-10-04_11h08.34.607,visual search task,2024.1.5,None,2024-10-04 11h08.44.348194 +0530,
91,0,91,0,165.06585159999997,,164.99613850000003,10,165.06585159999997,165.06585159999997,0.04923469999994268,166.09964849999994,166.38432150000006,[-0.2682291666666667],[0.3020833333333333],[1],[0],[0],[1.3402555999999777],['target'],243053,001,2024-10-04_11h08.34.607,visual search task,2024.1.5,None,2024-10-04 11h08.44.348194 +0530,
92,0,92,0,166.44906509999998,,166.38993040000003,10,166.44906509999998,166.44906509999998,0.036690899999939575,167.46590070000002,167.9030623,[-0.375],[0.4270833333333333],[1],[0],[0],[1.4766680999999835],['target'],243053,001,2024-10-04_11h08.34.607,visual search task,2024.1.5,None,2024-10-04 11h08.44.348194 +0530,
93,0,93,0,167.9685915,,167.91285779999998,10,167.9685915,167.9685915,0.040312599999992926,168.98413289999996,169.90099569999995,[-0.4166666666666667],[-0.4361979166666667],[1],[0],[0],[1.949109099999987],['target'],243053,001,2024-10-04_11h08.34.607,visual search task,2024.1.5,None,2024-10-04 11h08.44.348194 +0530,
94,0,94,0,169.96570989999998,,169.90647690000003,10,169.96570989999998,169.96570989999998,0.035779300000058356,170.99904760000004,171.43514730000004,[0.2994791666666667],[0.3463541666666667],[1],[0],[0],[1.4934395000000222],['target'],243053,001,2024-10-04_11h08.34.607,visual search task,2024.1.5,None,2024-10-04 11h08.44.348194 +0530,
95,0,95,0,171.4822309,,171.44050619999996,5,171.4822309,171.4822309,0.019500499999935528,172.49927430000002,173.16858360000003,[-0.24739583333333334],[-0.30859375],[1],[0],[0],[1.7088224999999966],['target'],243053,001,2024-10-04_11h08.34.607,visual search task,2024.1.5,None,2024-10-04 11h08.44.348194 +0530,
96,0,96,0,173.23250710000002,,173.17904190000002,5,173.23250710000002,173.23250710000002,0.029709899999943445,174.2660651,174.86809170000004,[-0.4231770833333333],[-0.4752604166666667],[1],[0],[0],[1.6608608999999888],['target'],243053,001,2024-10-04_11h08.34.607,visual search task,2024.1.5,None,2024-10-04 11h08.44.348194 +0530,
97,0,97,0,174.93230289999997,,174.87854100000004,5,174.93230289999997,174.93230289999997,0.02802520000000186,175.96586530000002,176.23617160000003,[0.20182291666666666],[0.055989583333333336],[1],[0],[0],[1.3310668000000305],['target'],243053,001,2024-10-04_11h08.34.607,visual search task,2024.1.5,None,2024-10-04 11h08.44.348194 +0530,
98,0,98,0,176.3155097,,176.2463914,10,176.3155097,176.3155097,0.043289599999980055,177.3331018,177.58501569999999,[0.23828125],[-0.059895833333333336],[1],[0],[0],[1.2968065000000024],['target'],243053,001,2024-10-04_11h08.34.607,visual search task,2024.1.5,None,2024-10-04 11h08.44.348194 +0530,
99,0,99,0,177.6489428,,177.59100279999996,10,177.6489428,177.6489428,0.037801400000034846,178.66582430000005,178.95041089999995,[0.3776041666666667],[-0.032552083333333336],[1],[0],[0],[1.3222832000000153],['target'],243053,001,2024-10-04_11h08.34.607,visual search task,2024.1.5,None,2024-10-04 11h08.44.348194 +0530,
100,0,100,0,178.98470970000005,,178.95460720000005,5,178.98470970000005,178.98470970000005,0.018185799999969277,180.03254270000002,180.60154680000005,[0.3645833333333333],[-0.2734375],[1],[0],[0],[1.6288061000000198],['target'],243053,001,2024-10-04_11h08.34.607,visual search task,2024.1.5,None,2024-10-04 11h08.44.348194 +0530,
101,0,101,0,180.68192299999998,,180.61197089999996,10,180.68192299999998,180.68192299999998,0.047639199999935045,181.68638099999998,182.3179252,[-0.2981770833333333],[0.3658854166666667],[1],[0],[0],[1.6597688000000517],['target'],243053,001,2024-10-04_11h08.34.607,visual search task,2024.1.5,None,2024-10-04 11h08.44.348194 +0530,
102,0,102,0,182.38203080000005,,182.32350280000003,10,182.38203080000005,182.38203080000005,0.03793740000003254,183.4153771,184.85071600000003,[-0.484375],[0.4375],[1],[0],[0],[2.489950600000043],['target'],243053,001,2024-10-04_11h08.34.607,visual search task,2024.1.5,None,2024-10-04 11h08.44.348194 +0530,
103,0,103,0,184.89857640000002,,184.85573829999998,5,184.89857640000002,184.89857640000002,0.018591599999922437,185.91574479999997,186.56691049999995,[-0.2864583333333333],[0.375],[1],[0],[0],[1.6931118999999626],['target'],243053,001,2024-10-04_11h08.34.607,visual search task,2024.1.5,None,2024-10-04 11h08.44.348194 +0530,
104,0,104,0,186.64846390000002,,186.572544,10,186.64846390000002,186.64846390000002,0.05048060000001442,187.66525130000002,188.23372189999998,[0.19921875],[0.2734375],[1],[0],[0],[1.6115683000000445],['target'],243053,001,2024-10-04_11h08.34.607,visual search task,2024.1.5,None,2024-10-04 11h08.44.348194 +0530,
105,0,105,0,188.33184900000003,,188.24083459999997,10,188.33184900000003,188.33184900000003,0.05495440000004237,189.3650182,189.85119169999996,[0.26171875],[-0.3736979166666667],[1],[0],[0],[1.5561881999999514],['target'],243053,001,2024-10-04_11h08.34.607,visual search task,2024.1.5,None,2024-10-04 11h08.44.348194 +0530,
106,0,106,0,189.89818249999996,,189.85864909999998,5,189.89818249999996,189.89818249999996,0.022734800000080213,190.89874050000003,191.8850165,[-0.234375],[0.33203125],[1],[0],[0],[2.004663599999958],['target'],243053,001,2024-10-04_11h08.34.607,visual search task,2024.1.5,None,2024-10-04 11h08.44.348194 +0530,
107,0,107,0,191.9325751,,191.89162350000004,5,191.9325751,191.9325751,0.025819899999987683,192.93194589999996,193.85316539999997,[-0.23958333333333334],[0.5],[1],[0],[0],[1.936599699999988],['target'],243053,001,2024-10-04_11h08.34.607,visual search task,2024.1.5,None,2024-10-04 11h08.44.348194 +0530,
108,0,108,0,193.96523279999997,,193.86086839999996,10,193.96523279999997,193.96523279999997,0.06494440000005852,194.99851820000003,197.4665175,[-0.3255208333333333],[-0.2265625],[1],[0],[0],[3.541726799999992],['target'],243053,001,2024-10-04_11h08.34.607,visual search task,2024.1.5,None,2024-10-04 11h08.44.348194 +0530,
109,0,109,0,197.54852979999998,,197.4722402,10,197.54852979999998,197.54852979999998,0.05380270000000564,198.56498,198.88443600000005,[0.028645833333333332],[-0.2565104166666667],[1],[0],[0],[1.3588359999999966],['target'],243053,001,2024-10-04_11h08.34.607,visual search task,2024.1.5,None,2024-10-04 11h08.44.348194 +0530,
110,0,110,0,198.93358139999998,,198.8918784,5,198.93358139999998,198.93358139999998,0.02788250000003245,199.96499189999997,200.38323490000005,[-0.4856770833333333],[0.3307291666666667],[1],[0],[0],[1.464624200000003],['target'],243053,001,2024-10-04_11h08.34.607,visual search task,2024.1.5,None,2024-10-04 11h08.44.348194 +0530,
111,0,111,0,200.44814829999996,,200.39160760000004,5,200.44814829999996,200.44814829999996,0.03411940000000868,201.44884520000005,201.78420389999997,[-0.23828125],[0.21354166666666666],[1],[0],[0],[1.3596707000000379],['target'],243053,001,2024-10-04_11h08.34.607,visual search task,2024.1.5,None,2024-10-04 11h08.44.348194 +0530,
112,0,112,0,201.83332670000004,,201.79077930000005,5,201.83332670000004,201.83332670000004,0.02610740000000078,202.88156070000002,203.88375610000003,[0.49609375],[0.3645833333333333],[1],[0],[0],[2.0676999999999452],['target'],243053,001,2024-10-04_11h08.34.607,visual search task,2024.1.5,None,2024-10-04 11h08.44.348194 +0530,
113,0,113,0,203.931286,,203.88890519999995,5,203.931286,203.931286,0.01919620000001032,204.93125499999996,205.46705629999997,[0.19270833333333334],[-0.3619791666666667],[1],[0],[0],[1.5593850999999859],['target'],243053,001,2024-10-04_11h08.34.607,visual search task,2024.1.5,None,2024-10-04 11h08.44.348194 +0530,
114,0,114,0,205.53185859999996,,205.47153400000002,10,205.53185859999996,205.53185859999996,0.042132200000082776,206.56470969999998,206.80077100000005,[-0.1328125],[0.20052083333333334],[1],[0],[0],[1.287339700000075],['target'],243053,001,2024-10-04_11h08.34.607,visual search task,2024.1.5,None,2024-10-04 11h08.44.348194 +0530,
115,0,115,0,206.8812504,,206.81540819999998,10,206.8812504,206.8812504,0.043933199999969474,207.89801050000005,208.21693189999996,[0.3828125],[0.078125],[1],[0],[0],[1.3588892000000214],['target'],243053,001,2024-10-04_11h08.34.607,visual search task,2024.1.5,None,2024-10-04 11h08.44.348194 +0530,
116,0,116,0,208.28118410000002,,208.22406160000003,10,208.28118410000002,208.28118410000002,0.03899479999995492,209.31489250000004,209.84963800000003,[-0.20182291666666666],[-0.3932291666666667],[1],[0],[0],[1.5875052999999753],['target'],243053,001,2024-10-04_11h08.34.607,visual search task,2024.1.5,None,2024-10-04 11h08.44.348194 +0530,
117,0,117,0,209.9148371,,209.85493670000005,10,209.9148371,209.9148371,0.03536239999993995,210.91484739999999,211.10343220000004,[-0.20703125],[-0.052083333333333336],[1],[0],[0],[1.2135613000000376],[],243053,001,2024-10-04_11h08.34.607,visual search task,2024.1.5,None,2024-10-04 11h08.44.348194 +0530,
118,0,118,0,211.18110879999995,,211.11491850000004,10,211.18110879999995,211.18110879999995,0.04062790000000405,212.21452490000001,212.3671359,[-0.01953125],[-0.3255208333333333],[1],[0],[0],[1.2131471000000147],['target'],243053,001,2024-10-04_11h08.34.607,visual search task,2024.1.5,None,2024-10-04 11h08.44.348194 +0530,
119,0,119,0,212.43106179999995,,212.37976700000002,5,212.43106179999995,212.43106179999995,0.030411599999979444,213.4481945,213.55079009999997,[-0.28125],[-0.015625],[1],[0],[0],[1.1426711999999952],[],243053,001,2024-10-04_11h08.34.607,visual search task,2024.1.5,None,2024-10-04 11h08.44.348194 +0530,
120,0,120,0,213.6156803,,213.5611394,5,213.6156803,213.6156803,0.03758570000002237,214.64806339999996,214.85180060000005,[0.13671875],[0.015625],[1],[0],[0],[1.2545145000000275],['target'],243053,001,2024-10-04_11h08.34.607,visual search task,2024.1.5,None,2024-10-04 11h08.44.348194 +0530,
121,0,121,0,214.9143206,,214.862892,5,214.9143206,214.9143206,0.02854560000002948,215.9314326,216.13531880000005,[-0.2421875],[-0.16796875],[1],[0],[0],[1.2456485999999813],['target'],243053,001,2024-10-04_11h08.34.607,visual search task,2024.1.5,None,2024-10-04 11h08.44.348194 +0530,
122,0,122,0,216.18387410000003,,216.14570270000002,5,216.18387410000003,216.18387410000003,0.026342699999986507,217.2149468,217.80179729999998,[-0.1171875],[0.2734375],[1],[0],[0],[1.6312803000000713],['target'],243053,001,2024-10-04_11h08.34.607,visual search task,2024.1.5,None,2024-10-04 11h08.44.348194 +0530,
123,0,123,0,217.88115919999996,,217.812137,10,217.88115919999996,217.88115919999996,0.04489150000006248,218.88380159999997,219.21719689999998,[0.4010416666666667],[0.0546875],[1],[0],[0],[1.3615871000000652],['target'],243053,001,2024-10-04_11h08.34.607,visual search task,2024.1.5,None,2024-10-04 11h08.44.348194 +0530,
124,0,124,0,219.26632389999997,,219.2273503,5,219.26632389999997,219.26632389999997,0.026661300000000665,220.31451430000004,220.85232759999997,[0.22786458333333334],[0.4348958333333333],[1],[0],[0],[1.599663699999951],['target'],243053,001,2024-10-04_11h08.34.607,visual search task,2024.1.5,None,2024-10-04 11h08.44.348194 +0530,
125,0,125,0,220.91410180000003,,220.8629988,5,220.91410180000003,220.91410180000003,0.028505600000016784,221.93124680000005,222.9177691,[-0.20442708333333334],[-0.32421875],[1],[0],[0],[2.027913699999999],['target'],243053,001,2024-10-04_11h08.34.607,visual search task,2024.1.5,None,2024-10-04 11h08.44.348194 +0530,
126,0,126,0,222.99749099999997,,222.92764109999996,10,222.99749099999997,222.99749099999997,0.04590800000005402,224.01605500000005,224.35120029999996,[0.3567708333333333],[0.1015625],[1],[0],[0],[1.3789354000000458],['target'],243053,001,2024-10-04_11h08.34.607,visual search task,2024.1.5,None,2024-10-04 11h08.44.348194 +0530,
127,0,127,0,224.41410150000002,,224.36428509999996,5,224.41410150000002,224.41410150000002,0.029348700000014105,225.44783270000005,226.0854081,[0.026041666666666668],[0.4622395833333333],[1],[0],[0],[1.6939462999999932],['target'],243053,001,2024-10-04_11h08.34.607,visual search task,2024.1.5,None,2024-10-04 11h08.44.348194 +0530,
128,0,128,0,226.18085140000005,,226.09571540000002,10,226.18085140000005,226.18085140000005,0.05714480000006006,227.18223909999995,227.51697690000003,[-0.2786458333333333],[0.015625],[1],[0],[0],[1.3654873000000407],['target'],243053,001,2024-10-04_11h08.34.607,visual search task,2024.1.5,None,2024-10-04 11h08.44.348194 +0530,
129,0,129,0,227.5660206,,227.52737850000005,5,227.5660206,227.5660206,0.02779920000000402,228.597717,228.63490460000003,[-0.22005208333333334],[0.048177083333333336],[1],[0],[0],[1.080928399999948],['target'],243053,001,2024-10-04_11h08.34.607,visual search task,2024.1.5,None,2024-10-04 11h08.44.348194 +0530,
130,0,130,0,228.71390240000005,,228.64568829999996,10,228.71390240000005,228.71390240000005,0.042746800000031726,229.7477182,229.98209729999996,[0.12109375],[0.049479166666666664],[1],[0],[0],[1.2953913000000057],['target'],243053,001,2024-10-04_11h08.34.607,visual search task,2024.1.5,None,2024-10-04 11h08.44.348194 +0530,
131,0,131,0,230.04718019999996,,229.98686350000003,10,230.04718019999996,230.04718019999996,0.03478949999998804,231.05156069999998,232.33342249999998,[0.4869791666666667],[-0.11979166666666667],[1],[0],[0],[2.3118901999999935],['target'],243053,001,2024-10-04_11h08.34.607,visual search task,2024.1.5,None,2024-10-04 11h08.44.348194 +0530,
132,0,132,0,232.39725729999998,,232.33928460000004,10,232.39725729999998,232.39725729999998,0.03604119999999966,233.41461219999997,233.73314430000005,[-0.4075520833333333],[0.024739583333333332],[1],[0],[0],[1.3584977000000436],['target'],243053,001,2024-10-04_11h08.34.607,visual search task,2024.1.5,None,2024-10-04 11h08.44.348194 +0530,
133,0,133,0,233.78040450000003,,233.73897109999996,5,233.78040450000003,233.78040450000003,0.019986899999935304,234.7976003,235.7833521,[-0.2552083333333333],[-0.3294270833333333],[1],[0],[0],[2.024714200000062],['target'],243053,001,2024-10-04_11h08.34.607,visual search task,2024.1.5,None,2024-10-04 11h08.44.348194 +0530,
134,0,134,0,235.83327840000004,,235.79356970000003,5,235.83327840000004,235.83327840000004,0.02929949999997916,236.8809245,237.68408810000005,[-0.014322916666666666],[0.11848958333333333],[1],[0],[0],[1.8626840999999104],['target'],243053,001,2024-10-04_11h08.34.607,visual search task,2024.1.5,None,2024-10-04 11h08.44.348194 +0530,
135,0,135,0,237.76361899999995,,237.6947669,10,237.76361899999995,237.76361899999995,0.044719599999893944,238.78042719999996,238.99965350000002,[-0.17578125],[-0.11328125],[1],[0],[0],[1.261265000000094],['target'],243053,001,2024-10-04_11h08.34.607,visual search task,2024.1.5,None,2024-10-04 11h08.44.348194 +0530,
136,0,136,0,239.06680719999997,,239.0098964,10,239.06680719999997,239.06680719999997,0.04099840000003496,240.09716590000005,240.48314660000005,[-0.09895833333333333],[0.08984375],[1],[0],[0],[1.4336405999999897],['target'],243053,001,2024-10-04_11h08.34.607,visual search task,2024.1.5,None,2024-10-04 11h08.44.348194 +0530,
137,0,137,0,240.5636985,,240.49410850000004,10,240.5636985,240.5636985,0.04218060000005153,241.5804253,242.03543330000002,[-0.47265625],[-0.3619791666666667],[1],[0],[0],[1.5003971999999521],['target'],243053,001,2024-10-04_11h08.34.607,visual search task,2024.1.5,None,2024-10-04 11h08.44.348194 +0530,
138,0,138,0,242.1168063,,242.04562769999995,10,242.1168063,242.1168063,0.04597380000006979,243.14711609999995,243.85163799999998,[-0.2721354166666667],[-0.44140625],[1],[0],[0],[1.7613395999999284],['target'],243053,001,2024-10-04_11h08.34.607,visual search task,2024.1.5,None,2024-10-04 11h08.44.348194 +0530,
139,0,139,0,243.93007369999998,,243.8619238,10,243.93007369999998,243.93007369999998,0.040507700000034674,244.93369029999997,245.0822905,[0.07682291666666667],[-0.3151041666666667],[1],[0],[0],[1.181220499999995],['target'],243053,001,2024-10-04_11h08.34.607,visual search task,2024.1.5,None,2024-10-04 11h08.44.348194 +0530,
140,0,140,0,245.14674530000002,,245.08672879999995,10,245.14674530000002,245.14674530000002,0.03417519999993601,246.16358209999999,246.8664566,[0.015625],[-0.41796875],[1],[0],[0],[1.7458619000000226],['target'],243053,001,2024-10-04_11h08.34.607,visual search task,2024.1.5,None,2024-10-04 11h08.44.348194 +0530,
141,0,141,0,246.91341839999995,,246.87096440000005,5,246.91341839999995,246.91341839999995,0.017963000000008833,247.94726300000002,248.61712720000003,[0.040364583333333336],[0.49609375],[1],[0],[0],[1.7283470999999508],['target'],243053,001,2024-10-04_11h08.34.607,visual search task,2024.1.5,None,2024-10-04 11h08.44.348194 +0530,
142,0,142,0,248.69663149999997,,248.62762710000004,10,248.69663149999997,248.69663149999997,0.046108800000070005,249.7303422,250.41648740000005,[0.06901041666666667],[-0.36328125],[1],[0],[0],[1.74452830000007],['target'],243053,001,2024-10-04_11h08.34.607,visual search task,2024.1.5,None,2024-10-04 11h08.44.348194 +0530,
143,0,143,0,250.4633169,,250.42244219999998,5,250.4633169,250.4633169,0.02090850000001865,251.49710619999996,252.06560420000005,[0.4947916666666667],[0.34765625],[1],[0],[0],[1.6230854000000363],['target'],243053,001,2024-10-04_11h08.34.607,visual search task,2024.1.5,None,2024-10-04 11h08.44.348194 +0530,
144,0,144,0,252.11306430000002,,252.07081340000002,5,252.11306430000002,252.11306430000002,0.02325410000003103,253.13063020000004,253.63390600000002,[-0.22916666666666666],[0.18098958333333334],[1],[0],[0],[1.54032600000005],['target'],243053,001,2024-10-04_11h08.34.607,visual search task,2024.1.5,None,2024-10-04 11h08.44.348194 +0530,
145,0,145,0,253.71312379999995,,253.64428769999995,10,253.71312379999995,253.71312379999995,0.0452548000000661,254.7314103,256.21502410000005,[0.4010416666666667],[-0.20963541666666666],[1],[0],[0],[2.527205600000002],['target'],243053,001,2024-10-04_11h08.34.607,visual search task,2024.1.5,None,2024-10-04 11h08.44.348194 +0530,
146,0,146,0,256.26332019999995,,256.2210272,5,256.26332019999995,256.26332019999995,0.026452699999936158,257.29665839999996,257.5672409,[0.296875],[0.033854166666666664],[1],[0],[0],[1.3202488999999105],['target'],243053,001,2024-10-04_11h08.34.607,visual search task,2024.1.5,None,2024-10-04 11h08.44.348194 +0530,
147,0,147,0,257.6163576,,257.57782180000004,5,257.6163576,257.6163576,0.027912499999956708,258.6469241,259.08424,[0.09244791666666667],[-0.1171875],[1],[0],[0],[1.479881100000057],['target'],243053,001,2024-10-04_11h08.34.607,visual search task,2024.1.5,None,2024-10-04 11h08.44.348194 +0530,
148,0,148,0,259.14641159999996,,259.09443309999995,5,259.14641159999996,259.14641159999996,0.028004900000041744,260.18018230000007,260.2505893,[-0.2734375],[0.09765625],[1],[0],[0],[1.1294441000000006],['target'],243053,001,2024-10-04_11h08.34.607,visual search task,2024.1.5,None,2024-10-04 11h08.44.348194 +0530,
149,0,149,0,260.3131728000001,,260.2610331000001,5,260.3131728000001,260.3131728000001,0.028947000000016487,261.3340155000001,262.09893379999994,[-0.3997395833333333],[0.09635416666666667],[1],[0],[0],[1.8102965000000495],['target'],243053,001,2024-10-04_11h08.34.607,visual search task,2024.1.5,None,2024-10-04 11h08.44.348194 +0530,
150,0,150,0,262.1796955,,262.10908889999996,10,262.1796955,262.1796955,0.047518000000081884,263.2128170000001,264.14965699999993,[-0.23697916666666666],[0.45703125],[1],[0],[0],[1.9943599000000631],[],243053,001,2024-10-04_11h08.34.607,visual search task,2024.1.5,None,2024-10-04 11h08.44.348194 +0530,
151,0,151,0,264.19647409999993,,264.1598905000001,5,264.19647409999993,264.19647409999993,0.024352599999929225,265.2299625999999,266.1990639999999,[0.2890625],[-0.41796875],[1],[0],[0],[2.015955399999939],['target'],243053,001,2024-10-04_11h08.34.607,visual search task,2024.1.5,None,2024-10-04 11h08.44.348194 +0530,
152,0,152,0,266.26279120000004,,266.2095213,5,266.26279120000004,266.26279120000004,0.032482099999924685,267.2811873999999,268.0821853,[0.11328125],[-0.4895833333333333],[1],[0],[0],[1.8416930000000775],['target'],243053,001,2024-10-04_11h08.34.607,visual search task,2024.1.5,None,2024-10-04 11h08.44.348194 +0530,
153,0,153,0,268.1627535,,268.0922820999999,10,268.1627535,268.1627535,0.04627419999997073,269.16350650000004,269.49854490000007,[-0.09505208333333333],[-0.2552083333333333],[1],[0],[0],[1.3615052999998625],['target'],243053,001,2024-10-04_11h08.34.607,visual search task,2024.1.5,None,2024-10-04 11h08.44.348194 +0530,
154,0,154,0,269.54644499999995,,269.50508650000006,5,269.54644499999995,269.54644499999995,0.021216800000047442,270.5631407999999,271.2002242000001,[0.24348958333333334],[0.2955729166666667],[1],[0],[0],[1.6743907000000036],['target'],243053,001,2024-10-04_11h08.34.607,visual search task,2024.1.5,None,2024-10-04 11h08.44.348194 +0530,
155,0,155,0,271.26268589999995,,271.2118183,5,271.26268589999995,271.26268589999995,0.02793640000004416,272.27979099999993,273.14943829999993,[0.20703125],[0.4049479166666667],[1],[0],[0],[1.91140960000007],['target'],243053,001,2024-10-04_11h08.34.607,visual search task,2024.1.5,None,2024-10-04 11h08.44.348194 +0530,
156,0,156,0,273.2292476,,273.1597617,10,273.2292476,273.2292476,0.0460665999999037,274.2465082000001,274.83311219999996,[0.4661458333333333],[-0.08463541666666667],[1],[0],[0],[1.6289091999999528],['target'],243053,001,2024-10-04_11h08.34.607,visual search task,2024.1.5,None,2024-10-04 11h08.44.348194 +0530,
157,0,157,0,274.9128467999999,,274.84422659999996,10,274.9128467999999,274.9128467999999,0.04334070000004431,275.9459635999999,276.59842950000007,[-0.18489583333333334],[-0.17317708333333334],[1],[0],[0],[1.7124755999998342],['target'],243053,001,2024-10-04_11h08.34.607,visual search task,2024.1.5,None,2024-10-04 11h08.44.348194 +0530,
158,0,158,0,276.6794620999999,,276.61029770000005,10,276.6794620999999,276.6794620999999,0.043827999999848544,277.7127963999999,278.13409750000005,[0.26953125],[0.10807291666666667],[1],[0],[0],[1.481627200000048],['target'],243053,001,2024-10-04_11h08.34.607,visual search task,2024.1.5,None,2024-10-04 11h08.44.348194 +0530,
159,0,159,0,278.19602499999996,,278.1447387999999,5,278.19602499999996,278.19602499999996,0.026955400000133523,279.2128895999999,279.8152591999999,[-0.4192708333333333],[0.30859375],[1],[0],[0],[1.6450019999999768],['target'],243053,001,2024-10-04_11h08.34.607,visual search task,2024.1.5,None,2024-10-04 11h08.44.348194 +0530,
160,0,160,0,279.89578030000007,,279.8253314000001,10,279.89578030000007,279.89578030000007,0.04510460000005878,280.9124924,281.3487164999999,[-0.23697916666666666],[-0.0859375],[1],[0],[0],[1.4796254000000317],['target'],243053,001,2024-10-04_11h08.34.607,visual search task,2024.1.5,None,2024-10-04 11h08.44.348194 +0530,
161,0,161,0,281.3979577,,281.3591939999999,5,281.3979577,281.3979577,0.027606199999809178,282.44614449999995,282.98360520000006,[-0.05078125],[-0.2265625],[1],[0],[0],[1.5982596999999714],[],243053,001,2024-10-04_11h08.34.607,visual search task,2024.1.5,None,2024-10-04 11h08.44.348194 +0530,
162,0,162,0,283.0622774000001,,282.9937506000001,10,283.0622774000001,283.0622774000001,0.043353499999966516,284.08101080000006,284.69871749999993,[-0.4947916666666667],[0.25],[1],[0],[0],[1.663048099999969],['target'],243053,001,2024-10-04_11h08.34.607,visual search task,2024.1.5,None,2024-10-04 11h08.44.348194 +0530,
163,0,163,0,284.7456625,,284.7054363,5,284.7456625,284.7456625,0.021675999999843043,285.7794156,286.4164667,[-0.033854166666666664],[0.16015625],[1],[0],[0],[1.6901444000000083],['target'],243053,001,2024-10-04_11h08.34.607,visual search task,2024.1.5,None,2024-10-04 11h08.44.348194 +0530,
164,0,164,0,286.4958445,,286.42640069999993,10,286.4958445,286.4958445,0.041934399999945526,287.4976188999999,288.0991039999999,[-0.024739583333333332],[-0.15234375],[1],[0],[0],[1.6317801999998665],['target'],243053,001,2024-10-04_11h08.34.607,visual search task,2024.1.5,None,2024-10-04 11h08.44.348194 +0530,
165,0,165,0,288.1453885000001,,288.10925670000006,5,288.1453885000001,288.1453885000001,0.024045399999977235,289.16272359999994,289.93187190000003,[0.27734375],[-0.2838541666666667],[1],[0],[0],[1.800028599999905],[],243053,001,2024-10-04_11h08.34.607,visual search task,2024.1.5,None,2024-10-04 11h08.44.348194 +0530,
166,0,166,0,290.01251490000004,,289.94195749999994,10,290.01251490000004,290.01251490000004,0.04358190000016293,291.0290195,291.64737919999993,[-0.11197916666666667],[0.3541666666666667],[1],[0],[0],[1.6632190999998784],['target'],243053,001,2024-10-04_11h08.34.607,visual search task,2024.1.5,None,2024-10-04 11h08.44.348194 +0530,
167,0,167,0,291.6958365999999,,291.65372780000007,5,291.6958365999999,291.6958365999999,0.02157319999992069,292.7292711,293.1326813999999,[0.3046875],[0.2877604166666667],[1],[0],[0],[1.4578671000001577],['target'],243053,001,2024-10-04_11h08.34.607,visual search task,2024.1.5,None,2024-10-04 11h08.44.348194 +0530,
168,0,168,0,293.1956471000001,,293.1428842,5,293.1956471000001,293.1956471000001,0.036745800000062445,294.2292477000001,295.46559520000005,[-0.3463541666666667],[-0.3515625],[1],[0],[0],[2.2876847],['target'],243053,001,2024-10-04_11h08.34.607,visual search task,2024.1.5,None,2024-10-04 11h08.44.348194 +0530,
169,0,169,0,295.5147171000001,,295.47590919999993,5,295.5147171000001,295.5147171000001,0.027070100000173625,296.5459447999999,297.0814101000001,[-0.08333333333333333],[-0.17708333333333334],[1],[0],[0],[1.5798822000001564],['target'],243053,001,2024-10-04_11h08.34.607,visual search task,2024.1.5,None,2024-10-04 11h08.44.348194 +0530,
170,0,170,0,297.1787164,,297.0914026999999,10,297.1787164,297.1787164,0.058419299999968644,298.2119785,298.2480025,[0.29296875],[-0.3151041666666667],[1],[0],[0],[1.0995802999998432],['target'],243053,001,2024-10-04_11h08.34.607,visual search task,2024.1.5,None,2024-10-04 11h08.44.348194 +0530,
171,0,171,0,298.2970525999999,,298.2587424000001,5,298.2970525999999,298.2970525999999,0.027861099999881844,299.3291213,299.9649850999999,[-0.4205729166666667],[-0.4401041666666667],[1],[0],[0],[1.679703500000187],['target'],243053,001,2024-10-04_11h08.34.607,visual search task,2024.1.5,None,2024-10-04 11h08.44.348194 +0530,
172,0,172,0,300.04519030000006,,299.9751976,10,300.04519030000006,300.04519030000006,0.04336779999994178,301.0785705999999,301.91361529999995,[0.08984375],[0.4765625],[1],[0],[0],[1.8964650000000347],['target'],243053,001,2024-10-04_11h08.34.607,visual search task,2024.1.5,None,2024-10-04 11h08.44.348194 +0530,
173,0,173,0,301.9785134000001,,301.9190977999999,10,301.9785134000001,301.9785134000001,0.03574860000003355,303.01220839999996,303.69672330000003,[-0.4674479166666667],[-0.16927083333333334],[1],[0],[0],[1.742609800000082],['target'],243053,001,2024-10-04_11h08.34.607,visual search task,2024.1.5,None,2024-10-04 11h08.44.348194 +0530,
174,0,174,0,303.7617391000001,,303.7015153,10,303.7617391000001,303.7617391000001,0.03447140000002946,304.76470760000007,305.34772670000007,[-0.020833333333333332],[0.18229166666666666],[1],[0],[0],[1.6119355000000724],['target'],243053,001,2024-10-04_11h08.34.607,visual search task,2024.1.5,None,2024-10-04 11h08.44.348194 +0530,
175,0,175,0,305.3950144999999,,305.3535927999999,5,305.3950144999999,305.3950144999999,0.020470499999873937,306.4121453,306.94905629999994,[0.3125],[-0.3229166666666667],[1],[0],[0],[1.575430200000028],['target'],243053,001,2024-10-04_11h08.34.607,visual search task,2024.1.5,None,2024-10-04 11h08.44.348194 +0530,
176,0,176,0,307.01198410000006,,306.95917899999995,5,307.01198410000006,307.01198410000006,0.030325100000027305,308.0453986,308.2633157,[0.06640625],[0.10807291666666667],[1],[0],[0],[1.2754181999998764],['target'],243053,001,2024-10-04_11h08.34.607,visual search task,2024.1.5,None,2024-10-04 11h08.44.348194 +0530,
177,0,177,0,308.3116798000001,,308.26886680000007,5,308.3116798000001,308.3116798000001,0.019319799999948373,309.3453864999999,310.7809959000001,[0.15234375],[0.4322916666666667],[1],[0],[0],[2.4929850000000897],['target'],243053,001,2024-10-04_11h08.34.607,visual search task,2024.1.5,None,2024-10-04 11h08.44.348194 +0530,
178,0,178,0,310.87852210000005,,310.79137059999994,10,310.87852210000005,310.87852210000005,0.05918399999995927,311.91176100000007,312.23012130000006,[0.08072916666666667],[0.13020833333333334],[1],[0],[0],[1.3811957999998867],['target'],243053,001,2024-10-04_11h08.34.607,visual search task,2024.1.5,None,2024-10-04 11h08.44.348194 +0530,
179,0,179,0,312.2949297,,312.2372702,5,312.2949297,312.2949297,0.03139929999997548,313.29626699999994,313.48014910000006,[0.059895833333333336],[0.15234375],[1],[0],[0],[1.212519200000088],['target'],243053,001,2024-10-04_11h08.34.607,visual search task,2024.1.5,None,2024-10-04 11h08.44.348194 +0530,
180,0,180,0,313.59489800000006,,313.4878675,10,313.59489800000006,313.59489800000006,0.06534310000006371,314.62805879999996,315.3465841,[0.17578125],[0.3229166666666667],[1],[0],[0],[1.7946085000000949],['target'],243053,001,2024-10-04_11h08.34.607,visual search task,2024.1.5,None,2024-10-04 11h08.44.348194 +0530,
181,0,181,0,315.3951208000001,,315.35144190000005,5,315.3951208000001,315.3951208000001,0.01981789999990724,316.4118974999999,317.0822152999999,[0.4752604166666667],[-0.3203125],[1],[0],[0],[1.711118899999974],['target'],243053,001,2024-10-04_11h08.34.607,visual search task,2024.1.5,None,2024-10-04 11h08.44.348194 +0530,
182,0,182,0,317.1307071000001,,317.09270689999994,5,317.1307071000001,317.1307071000001,0.027572299999974348,318.1620966999999,320.09872640000003,[-0.328125],[0.21223958333333334],[1],[0],[0],[2.9800654999999097],['target'],243053,001,2024-10-04_11h08.34.607,visual search task,2024.1.5,None,2024-10-04 11h08.44.348194 +0530,
183,0,183,0,320.1616457,,320.1093992000001,5,320.1616457,320.1616457,0.02888359999997192,321.1950830999999,321.8652153999999,[0.06770833333333333],[-0.390625],[1],[0],[0],[1.7282140999998319],[],243053,001,2024-10-04_11h08.34.607,visual search task,2024.1.5,None,2024-10-04 11h08.44.348194 +0530,
184,0,184,0,321.94449570000006,,321.8754206000001,10,321.94449570000006,321.94449570000006,0.04287060000001475,322.94848950000005,323.415301,[-0.15755208333333334],[0.059895833333333336],[1],[0],[0],[1.49854130000017],['target'],243053,001,2024-10-04_11h08.34.607,visual search task,2024.1.5,None,2024-10-04 11h08.44.348194 +0530,
185,0,185,0,323.4946781000001,,323.42663089999996,10,323.4946781000001,323.4946781000001,0.04243780000001607,324.52801909999994,325.54861260000007,[-0.2864583333333333],[-0.30859375],[1],[0],[0],[2.0811161999999968],['target'],243053,001,2024-10-04_11h08.34.607,visual search task,2024.1.5,None,2024-10-04 11h08.44.348194 +0530,
186,0,186,0,325.59460680000007,,325.5592168999999,5,325.59460680000007,325.59460680000007,0.022957600000154343,326.6116211000001,327.414037,[0.015625],[-0.3463541666666667],[1],[0],[0],[1.8330588000001171],['target'],243053,001,2024-10-04_11h08.34.607,visual search task,2024.1.5,None,2024-10-04 11h08.44.348194 +0530,
187,0,187,0,327.4943888,,327.4245097999999,10,327.4943888,327.4943888,0.04386249999993197,328.5278075000001,329.0961087999999,[0.125],[0.19661458333333334],[1],[0],[0],[1.6295027000001028],['target'],243053,001,2024-10-04_11h08.34.607,visual search task,2024.1.5,None,2024-10-04 11h08.44.348194 +0530,
188,0,188,0,329.1613576,,329.10118779999993,10,329.1613576,329.1613576,0.035908900000094945,330.19477729999994,331.4482593,[-0.00390625],[0.0078125],[1],[0],[0],[2.31164919999992],['target'],243053,001,2024-10-04_11h08.34.607,visual search task,2024.1.5,None,2024-10-04 11h08.44.348194 +0530,
189,0,189,0,331.5277329999999,,331.4601834,10,331.5277329999999,331.5277329999999,0.04174809999994977,332.5444416,333.9138932999999,[-0.5026041666666666],[0.3619791666666667],[1],[0],[0],[2.413434000000052],['target'],243053,001,2024-10-04_11h08.34.607,visual search task,2024.1.5,None,2024-10-04 11h08.44.348194 +0530,
190,0,190,0,334.0108966,,333.9246977,10,334.0108966,334.0108966,0.059563100000104896,335.01520660000006,335.91251280000006,[-0.1015625],[-0.4622395833333333],[1],[0],[0],[1.9298761000000013],['target'],243053,001,2024-10-04_11h08.34.607,visual search task,2024.1.5,None,2024-10-04 11h08.44.348194 +0530,
191,0,191,0,335.97750730000007,,335.9166845,10,335.97750730000007,335.97750730000007,0.033529699999917284,337.01089350000007,337.3125855999999,[-0.203125],[-0.18098958333333334],[1],[0],[0],[1.3625993000000562],['target'],243053,001,2024-10-04_11h08.34.607,visual search task,2024.1.5,None,2024-10-04 11h08.44.348194 +0530,
192,0,192,0,337.37742189999994,,337.31835079999996,10,337.37742189999994,337.37742189999994,0.03568519999998898,338.38057849999996,339.9316438000001,[0.23697916666666666],[-0.2682291666666667],[1],[0],[0],[2.5781167000000096],['target'],243053,001,2024-10-04_11h08.34.607,visual search task,2024.1.5,None,2024-10-04 11h08.44.348194 +0530,
193,0,193,0,339.9939718999999,,339.9374157,10,339.9939718999999,339.9939718999999,0.035583099999939805,341.0276530000001,341.2154439000001,[-0.4401041666666667],[-0.11848958333333333],[1],[0],[0],[1.2427021000000877],['target'],243053,001,2024-10-04_11h08.34.607,visual search task,2024.1.5,None,2024-10-04 11h08.44.348194 +0530,
194,0,194,0,341.26342279999994,,341.2257469000001,5,341.26342279999994,341.26342279999994,0.02651700000001256,342.29453910000007,342.8319805000001,[0.08723958333333333],[-0.07161458333333333],[1],[0],[0],[1.5811032999999952],['target'],243053,001,2024-10-04_11h08.34.607,visual search task,2024.1.5,None,2024-10-04 11h08.44.348194 +0530,
195,0,195,0,342.9107197999999,,342.84203980000007,10,342.9107197999999,342.9107197999999,0.044466299999839975,343.9149898999999,344.37925960000007,[0.02734375],[-0.09114583333333333],[1],[0],[0],[1.4942155000001094],['target'],243053,001,2024-10-04_11h08.34.607,visual search task,2024.1.5,None,2024-10-04 11h08.44.348194 +0530,
196,0,196,0,344.4465583000001,,344.3889237000001,10,344.4465583000001,344.4465583000001,0.04233509999994567,345.4790645999999,345.83356019999997,[-0.421875],[-0.2760416666666667],[1],[0],[0],[1.404066000000057],['target'],243053,001,2024-10-04_11h08.34.607,visual search task,2024.1.5,None,2024-10-04 11h08.44.348194 +0530,
197,0,197,0,345.89392670000007,,345.8448665000001,5,345.89392670000007,345.89392670000007,0.026329999999916254,346.92759580000006,347.86337679999997,[0.46484375],[0.2421875],[1],[0],[0],[1.993880900000022],['target'],243053,001,2024-10-04_11h08.34.607,visual search task,2024.1.5,None,2024-10-04 11h08.44.348194 +0530,
198,0,198,0,347.9120238999999,,347.8737891999999,5,347.9120238999999,347.9120238999999,0.0276710999999068,348.9611287,349.4131867000001,[0.18359375],[-0.006510416666666667],[1],[0],[0],[1.513157500000034],['target'],243053,001,2024-10-04_11h08.34.607,visual search task,2024.1.5,None,2024-10-04 11h08.44.348194 +0530,
199,0,199,0,349.46389640000007,,349.42340119999994,5,349.46389640000007,349.46389640000007,0.029001600000128747,350.4942552,351.2646629000001,[-0.2981770833333333],[-0.18880208333333334],[1],[0],[0],[1.813329000000067],['target'],243053,001,2024-10-04_11h08.34.607,visual search task,2024.1.5,None,2024-10-04 11h08.44.348194 +0530,
