trials.thisRepN,trials.thisTrialN,trials.thisN,trials.thisIndex,thisRow.t,notes,trial.started,num_distr,fixation.started,target.started,mouse.started,fixation.stopped,trial.stopped,mouse.x,mouse.y,mouse.leftButton,mouse.midButton,mouse.rightButton,mouse.time,mouse.clicked_name,participant,session,date,expName,psychopyVersion,frameRate,expStart,
0,0,0,0,0.07402759999990849,,0.011719999999968422,5,0.07402759999990849,0.07402759999990849,0.03967449999981909,1.077176799999961,3.0119191999999657,[-0.07421875],[-0.3424479166666667],[1],[0],[0],[2.970650599999999],['target'],485604,001,2024-10-04_11h22.22.241,visual search task,2024.1.5,None,2024-10-04 11h22.29.971547 +0530,
1,0,1,0,3.1741709999998875,,3.024850199999946,5,3.1741709999998875,3.1741709999998875,0.12787500000013097,4.2076741999999285,4.4766996000000745,[0.12760416666666666],[0.33984375],[1],[0],[0],[1.3256129000001238],['target'],485604,001,2024-10-04_11h22.22.241,visual search task,2024.1.5,None,2024-10-04 11h22.29.971547 +0530,
2,0,2,0,4.540748200000053,,4.486975099999881,5,4.540748200000053,4.540748200000053,0.02907350000009501,5.574226299999964,5.644269899999927,[-0.1171875],[0.061197916666666664],[1],[0],[0],[1.1293762000000243],['target'],485604,001,2024-10-04_11h22.22.241,visual search task,2024.1.5,None,2024-10-04 11h22.29.971547 +0530,
3,0,3,0,5.723943400000053,,5.654801299999917,10,5.723943400000053,5.723943400000053,0.045129000000088126,6.740546199999926,7.060323200000084,[-0.04296875],[0.04296875],[1],[0],[0],[1.3619138000001385],[],485604,001,2024-10-04_11h22.22.241,visual search task,2024.1.5,None,2024-10-04 11h22.29.971547 +0530,
4,0,4,0,7.1071574000000055,,7.066693299999997,5,7.1071574000000055,7.1071574000000055,0.021810400000049412,8.108248900000035,9.44436339999993,[-0.006510416666666667],[-0.4010416666666667],[1],[0],[0],[2.3563879999999244],['target'],485604,001,2024-10-04_11h22.22.241,visual search task,2024.1.5,None,2024-10-04 11h22.29.971547 +0530,
5,0,5,0,9.493371000000025,,9.454188899999963,5,9.493371000000025,9.493371000000025,0.028436499999997977,10.541108099999974,10.977600400000028,[-0.3502604166666667],[-0.18359375],[1],[0],[0],[1.496094899999889],['target'],485604,001,2024-10-04_11h22.22.241,visual search task,2024.1.5,None,2024-10-04 11h22.29.971547 +0530,
6,0,6,0,11.025200999999925,,10.987969999999905,5,11.025200999999925,11.025200999999925,0.02584660000002259,12.07410979999986,12.477399599999899,[-0.4609375],[0.18880208333333334],[1],[0],[0],[1.4650380000000496],['target'],485604,001,2024-10-04_11h22.22.241,visual search task,2024.1.5,None,2024-10-04 11h22.29.971547 +0530,
7,0,7,0,12.525887000000012,,12.487294199999951,5,12.525887000000012,12.525887000000012,0.027813599999944927,13.574083900000005,14.394166199999972,[0.3372395833333333],[-0.27734375],[1],[0],[0],[1.8804033000001255],['target'],485604,001,2024-10-04_11h22.22.241,visual search task,2024.1.5,None,2024-10-04 11h22.29.971547 +0530,
8,0,8,0,14.44479299999989,,14.405514900000071,5,14.44479299999989,14.44479299999989,0.027994099999887112,15.474013499999955,16.094376600000032,[-0.3776041666666667],[-0.06770833333333333],[1],[0],[0],[1.6625556000001325],['target'],485604,001,2024-10-04_11h22.22.241,visual search task,2024.1.5,None,2024-10-04 11h22.29.971547 +0530,
9,0,9,0,16.190139000000045,,16.104694299999892,10,16.190139000000045,16.190139000000045,0.06201369999985218,17.210411199999953,19.076234500000055,[-0.37890625],[-0.16015625],[1],[0],[0],[2.911036899999999],['target'],485604,001,2024-10-04_11h22.22.241,visual search task,2024.1.5,None,2024-10-04 11h22.29.971547 +0530,
10,0,10,0,19.156676099999913,,19.086479900000086,10,19.156676099999913,19.156676099999913,0.04429780000009487,20.17379200000005,21.12719509999988,[0.3958333333333333],[-0.044270833333333336],[1],[0],[0],[1.997795300000007],['target'],485604,001,2024-10-04_11h22.22.241,visual search task,2024.1.5,None,2024-10-04 11h22.29.971547 +0530,
11,0,11,0,21.193280100000038,,21.137152799999967,10,21.193280100000038,21.193280100000038,0.04110889999992651,22.223676599999862,22.692639399999962,[-0.1015625],[0.11197916666666667],[1],[0],[0],[1.5158706000001985],['target'],485604,001,2024-10-04_11h22.22.241,visual search task,2024.1.5,None,2024-10-04 11h22.29.971547 +0530,
12,0,12,0,22.756600199999866,,22.696648099999948,10,22.756600199999866,22.756600199999866,0.03456019999998716,23.790201000000025,24.692792000000054,[-0.17708333333333334],[0.4427083333333333],[1],[0],[0],[1.9616095000001224],['target'],485604,001,2024-10-04_11h22.22.241,visual search task,2024.1.5,None,2024-10-04 11h22.29.971547 +0530,
13,0,13,0,24.773390399999926,,24.702432600000066,10,24.773390399999926,24.773390399999926,0.044233900000108406,25.79015449999997,26.008926100000053,[0.10286458333333333],[-0.044270833333333336],[1],[0],[0],[1.263329800000065],['target'],485604,001,2024-10-04_11h22.22.241,visual search task,2024.1.5,None,2024-10-04 11h22.29.971547 +0530,
14,0,14,0,26.05644949999987,,26.014612100000022,5,26.05644949999987,26.05644949999987,0.020878799999991315,27.073739799999885,27.411084699999947,[-0.3111979166666667],[0.30859375],[1],[0],[0],[1.3758959999997842],['target'],485604,001,2024-10-04_11h22.22.241,visual search task,2024.1.5,None,2024-10-04 11h22.29.971547 +0530,
15,0,15,0,27.45926600000007,,27.421373099999983,5,27.45926600000007,27.45926600000007,0.026809899999989284,28.50697029999992,29.309317700000065,[-0.013020833333333334],[-0.3841145833333333],[1],[0],[0],[1.8627203000000918],['target'],485604,001,2024-10-04_11h22.22.241,visual search task,2024.1.5,None,2024-10-04 11h22.29.971547 +0530,
16,0,16,0,29.389669099999992,,29.31964620000008,10,29.389669099999992,29.389669099999992,0.04493950000005498,30.42339509999988,31.242720899999995,[-0.013020833333333334],[0.17447916666666666],[1],[0],[0],[1.8795608999998876],['target'],485604,001,2024-10-04_11h22.22.241,visual search task,2024.1.5,None,2024-10-04 11h22.29.971547 +0530,
17,0,17,0,31.306200699999863,,31.25497150000001,5,31.306200699999863,31.306200699999863,0.03665539999997236,,32.24427179999998,[0.0390625],[0.06510416666666667],[1],[0],[0],[0.9547031999998126],['target'],485604,001,2024-10-04_11h22.22.241,visual search task,2024.1.5,None,2024-10-04 11h22.29.971547 +0530,
18,0,18,0,32.306574299999966,,32.2556783,5,32.306574299999966,32.306574299999966,0.029237699999839606,33.340211199999885,34.34320269999989,[-0.18098958333333334],[-0.4361979166666667],[1],[0],[0],[2.0599101000000246],['target'],485604,001,2024-10-04_11h22.22.241,visual search task,2024.1.5,None,2024-10-04 11h22.29.971547 +0530,
19,0,19,0,34.40652509999995,,34.35362659999987,5,34.40652509999995,34.40652509999995,0.029789100000016333,35.44016439999996,35.810073800000055,[-0.17447916666666666],[0.4453125],[1],[0],[0],[1.4283219000001282],['target'],485604,001,2024-10-04_11h22.22.241,visual search task,2024.1.5,None,2024-10-04 11h22.29.971547 +0530,
20,0,20,0,35.8897594,,35.820301499999914,10,35.8897594,35.8897594,0.04425719999994726,36.892511099999865,37.67497079999998,[0.13541666666666666],[-0.2513020833333333],[1],[0],[0],[1.81195189999994],['target'],485604,001,2024-10-04_11h22.22.241,visual search task,2024.1.5,None,2024-10-04 11h22.29.971547 +0530,
21,0,21,0,37.739725200000066,,37.68170310000005,10,37.739725200000066,37.739725200000066,0.040371699999923294,38.77324159999989,39.52892750000001,[-0.4231770833333333],[-0.171875],[1],[0],[0],[1.8076764999998431],['target'],485604,001,2024-10-04_11h22.22.241,visual search task,2024.1.5,None,2024-10-04 11h22.29.971547 +0530,
22,0,22,0,39.57281790000002,,39.533684600000015,5,39.57281790000002,39.57281790000002,0.018150699999978315,40.60670129999994,40.70996289999994,[0.22005208333333334],[0.14453125],[1],[0],[0],[1.1582593999999062],['target'],485604,001,2024-10-04_11h22.22.241,visual search task,2024.1.5,None,2024-10-04 11h22.29.971547 +0530,
23,0,23,0,40.78934819999995,,40.7202456,10,40.78934819999995,40.78934819999995,0.0447169000001395,41.806382400000075,43.80857609999998,[0.3671875],[0.17708333333333334],[1],[0],[0],[3.04514109999991],[],485604,001,2024-10-04_11h22.22.241,visual search task,2024.1.5,None,2024-10-04 11h22.29.971547 +0530,
24,0,24,0,43.85896550000007,,43.81779280000001,5,43.85896550000007,43.85896550000007,0.029247700000041732,44.873608200000035,45.491539999999986,[0.4153645833333333],[-0.17708333333333334],[1],[0],[0],[1.6462386999999126],['target'],485604,001,2024-10-04_11h22.22.241,visual search task,2024.1.5,None,2024-10-04 11h22.29.971547 +0530,
25,0,25,0,45.5726138,,45.49558329999991,10,45.5726138,45.5726138,0.0491836000001058,46.590350199999875,48.29541659999995,[0.3580729166666667],[0.03125],[1],[0],[0],[2.7509761999999682],['target'],485604,001,2024-10-04_11h22.22.241,visual search task,2024.1.5,None,2024-10-04 11h22.29.971547 +0530,
26,0,26,0,48.37265249999996,,48.29965079999988,10,48.37265249999996,48.37265249999996,0.043795699999918725,49.40591870000003,50.19549299999994,[-0.3294270833333333],[-0.4036458333333333],[1],[0],[0],[1.852406799999926],['target'],485604,001,2024-10-04_11h22.22.241,visual search task,2024.1.5,None,2024-10-04 11h22.29.971547 +0530,
27,0,27,0,50.25580160000004,,50.1995801999999,10,50.25580160000004,50.25580160000004,0.03442979999999807,51.289228399999956,51.6242150999999,[0.09244791666666667],[-0.01171875],[1],[0],[0],[1.3904622999998537],['target'],485604,001,2024-10-04_11h22.22.241,visual search task,2024.1.5,None,2024-10-04 11h22.29.971547 +0530,
28,0,28,0,51.67271219999998,,51.62949739999999,5,51.67271219999998,51.67271219999998,0.0194072999997843,52.70619459999989,54.24280159999989,[0.045572916666666664],[0.4856770833333333],[1],[0],[0],[2.5941751999998814],['target'],485604,001,2024-10-04_11h22.22.241,visual search task,2024.1.5,None,2024-10-04 11h22.29.971547 +0530,
29,0,29,0,54.29061550000006,,54.25296849999995,5,54.29061550000006,54.29061550000006,0.0265226999999868,55.33964209999999,56.37528229999998,[-0.10286458333333333],[0.1015625],[1],[0],[0],[2.097027300000036],['target'],485604,001,2024-10-04_11h22.22.241,visual search task,2024.1.5,None,2024-10-04 11h22.29.971547 +0530,
30,0,30,0,56.42474220000008,,56.385630900000024,5,56.42474220000008,56.42474220000008,0.02799800000002506,57.456160100000034,58.29247609999993,[0.4479166666666667],[0.41796875],[1],[0],[0],[1.8802788999998938],['target'],485604,001,2024-10-04_11h22.22.241,visual search task,2024.1.5,None,2024-10-04 11h22.29.971547 +0530,
31,0,31,0,58.340950699999894,,58.30244360000006,5,58.340950699999894,58.340950699999894,0.027511900000035894,59.37305530000003,60.24186110000005,[0.4361979166666667],[0.2747395833333333],[1],[0],[0],[1.91313439999999],['target'],485604,001,2024-10-04_11h22.22.241,visual search task,2024.1.5,None,2024-10-04 11h22.29.971547 +0530,
32,0,32,0,60.29039399999988,,60.25255199999992,5,60.29039399999988,60.29039399999988,0.027639500000077533,61.29328170000008,61.64128609999989,[-0.24348958333333334],[0.018229166666666668],[1],[0],[0],[1.3628824999998415],['target'],485604,001,2024-10-04_11h22.22.241,visual search task,2024.1.5,None,2024-10-04 11h22.29.971547 +0530,
33,0,33,0,61.72226529999989,,61.651967199999945,10,61.72226529999989,61.72226529999989,0.04747640000005049,62.75589119999995,65.29240140000002,[-0.43359375],[0.37890625],[1],[0],[0],[3.5946258999999827],['target'],485604,001,2024-10-04_11h22.22.241,visual search task,2024.1.5,None,2024-10-04 11h22.29.971547 +0530,
34,0,34,0,65.35554750000006,,65.30505100000005,5,65.35554750000006,65.35554750000006,0.0291984999998931,66.38915339999994,66.65950729999986,[-0.3450520833333333],[0.07682291666666667],[1],[0],[0],[1.3273388000000068],['target'],485604,001,2024-10-04_11h22.22.241,visual search task,2024.1.5,None,2024-10-04 11h22.29.971547 +0530,
35,0,35,0,66.70915779999996,,66.66973529999996,5,66.70915779999996,66.70915779999996,0.028099500000053013,67.73919030000002,67.90915399999994,[-0.3736979166666667],[0.11588541666666667],[1],[0],[0],[1.2127973999999995],['target'],485604,001,2024-10-04_11h22.22.241,visual search task,2024.1.5,None,2024-10-04 11h22.29.971547 +0530,
36,0,36,0,67.97367650000001,,67.91999480000004,5,67.97367650000001,67.97367650000001,0.03502800000001116,69.02238169999987,69.49216479999995,[0.3763020833333333],[-0.12369791666666667],[1],[0],[0],[1.5392374999998992],['target'],485604,001,2024-10-04_11h22.22.241,visual search task,2024.1.5,None,2024-10-04 11h22.29.971547 +0530,
37,0,37,0,69.54295159999992,,69.50240400000007,5,69.54295159999992,69.54295159999992,0.02917739999998048,70.57250099999987,71.57622029999993,[-0.19010416666666666],[0.22526041666666666],[1],[0],[0],[2.0461487000000034],['target'],485604,001,2024-10-04_11h22.22.241,visual search task,2024.1.5,None,2024-10-04 11h22.29.971547 +0530,
38,0,38,0,71.62418950000006,,71.5864623,5,71.62418950000006,71.62418950000006,0.027135199999975157,72.65582380000001,73.42439519999994,[-0.13541666666666666],[-0.37109375],[1],[0],[0],[1.812110500000017],['target'],485604,001,2024-10-04_11h22.22.241,visual search task,2024.1.5,None,2024-10-04 11h22.29.971547 +0530,
39,0,39,0,73.5218006,,73.4345636999999,10,73.5218006,73.5218006,0.06386399999996684,74.53975450000007,75.42370589999996,[-0.328125],[0.037760416666666664],[1],[0],[0],[1.9268670000001293],['target'],485604,001,2024-10-04_11h22.22.241,visual search task,2024.1.5,None,2024-10-04 11h22.29.971547 +0530,
40,0,40,0,75.48839099999987,,75.43038200000001,10,75.48839099999987,75.48839099999987,0.04018080000014379,76.50710090000007,76.94105259999992,[-0.1328125],[0.049479166666666664],[1],[0],[0],[1.4713354999998955],['target'],485604,001,2024-10-04_11h22.22.241,visual search task,2024.1.5,None,2024-10-04 11h22.29.971547 +0530,
41,0,41,0,77.02210930000001,,76.95307819999994,10,77.02210930000001,77.02210930000001,0.043409399999973175,78.0384896999999,78.6248556999999,[-0.10546875],[0.21484375],[1],[0],[0],[1.6301739999998972],['target'],485604,001,2024-10-04_11h22.22.241,visual search task,2024.1.5,None,2024-10-04 11h22.29.971547 +0530,
42,0,42,0,78.70491689999994,,78.63716440000007,10,78.70491689999994,78.70491689999994,0.0473400999999285,79.72209380000004,80.80955390000008,[0.13541666666666666],[-0.3333333333333333],[1],[0],[0],[2.126836899999944],['target'],485604,001,2024-10-04_11h22.22.241,visual search task,2024.1.5,None,2024-10-04 11h22.29.971547 +0530,
43,0,43,0,80.88833350000004,,80.82103430000006,10,80.88833350000004,80.88833350000004,0.043546299999889015,81.90509939999993,82.70909119999988,[-0.014322916666666666],[0.44140625],[1],[0],[0],[1.8456082000000151],['target'],485604,001,2024-10-04_11h22.22.241,visual search task,2024.1.5,None,2024-10-04 11h22.29.971547 +0530,
44,0,44,0,82.77615769999989,,82.71921240000006,10,82.77615769999989,82.77615769999989,0.04165330000000722,83.80716559999996,84.62736960000007,[0.0625],[-0.13411458333333334],[1],[0],[0],[1.8682745999999497],['target'],485604,001,2024-10-04_11h22.22.241,visual search task,2024.1.5,None,2024-10-04 11h22.29.971547 +0530,
45,0,45,0,84.67149960000006,,84.63167369999996,5,84.67149960000006,84.67149960000006,0.018041699999912453,85.70575989999998,86.20847430000003,[-0.14322916666666666],[-0.19921875],[1],[0],[0],[1.5589772000000721],['target'],485604,001,2024-10-04_11h22.22.241,visual search task,2024.1.5,None,2024-10-04 11h22.29.971547 +0530,
46,0,46,0,86.25741560000006,,86.21912429999998,5,86.25741560000006,86.25741560000006,0.027334500000051776,87.28862000000004,88.39092340000002,[0.4270833333333333],[0.3997395833333333],[1],[0],[0],[2.146129299999984],['target'],485604,001,2024-10-04_11h22.22.241,visual search task,2024.1.5,None,2024-10-04 11h22.29.971547 +0530,
47,0,47,0,88.44141409999997,,88.40146120000009,5,88.44141409999997,88.44141409999997,0.02957409999999072,89.45824349999998,90.02409130000001,[0.13671875],[0.3203125],[1],[0],[0],[1.5946627000000717],['target'],485604,001,2024-10-04_11h22.22.241,visual search task,2024.1.5,None,2024-10-04 11h22.29.971547 +0530,
48,0,48,0,90.10462480000001,,90.03398829999992,10,90.10462480000001,90.10462480000001,0.051923799999940456,91.12140569999997,93.52434240000002,[0.2734375],[0.46484375],[1],[0],[0],[3.440007499999865],['target'],485604,001,2024-10-04_11h22.22.241,visual search task,2024.1.5,None,2024-10-04 11h22.29.971547 +0530,
49,0,49,0,93.60448709999991,,93.53687500000001,10,93.60448709999991,93.60448709999991,0.04691699999989396,94.63843900000006,95.53986899999995,[-0.24609375],[-0.3268229166666667],[1],[0],[0],[1.9584521000001587],['target'],485604,001,2024-10-04_11h22.22.241,visual search task,2024.1.5,None,2024-10-04 11h22.29.971547 +0530,
50,0,50,0,95.5878745,,95.54542560000004,5,95.5878745,95.5878745,0.020224899999902846,96.6052287,97.4422004999999,[0.09635416666666667],[0.22265625],[1],[0],[0],[1.8771323000000848],['target'],485604,001,2024-10-04_11h22.22.241,visual search task,2024.1.5,None,2024-10-04 11h22.29.971547 +0530,
51,0,51,0,97.49098890000005,,97.45232770000007,5,97.49098890000005,97.49098890000005,0.02722730000004958,98.52196800000002,99.19231639999998,[-0.028645833333333332],[0.4596354166666667],[1],[0],[0],[1.7137656999998399],['target'],485604,001,2024-10-04_11h22.22.241,visual search task,2024.1.5,None,2024-10-04 11h22.29.971547 +0530,
52,0,52,0,99.2710141,,99.20237350000002,10,99.2710141,99.2710141,0.042246800000157236,100.3044777,101.24014790000001,[0.08072916666666667],[-0.17447916666666666],[1],[0],[0],[1.9965027999999165],['target'],485604,001,2024-10-04_11h22.22.241,visual search task,2024.1.5,None,2024-10-04 11h22.29.971547 +0530,
53,0,53,0,101.28785270000003,,101.24579569999992,5,101.28785270000003,101.28785270000003,0.02083560000005491,102.30479439999999,103.17530949999991,[0.28515625],[-0.11328125],[1],[0],[0],[1.909084200000052],['target'],485604,001,2024-10-04_11h22.22.241,visual search task,2024.1.5,None,2024-10-04 11h22.29.971547 +0530,
54,0,54,0,103.23792219999996,,103.18542159999993,5,103.23792219999996,103.23792219999996,0.026341000000002168,104.24193779999996,105.20791570000006,[0.06770833333333333],[0.1875],[1],[0],[0],[1.997472099999868],['target'],485604,001,2024-10-04_11h22.22.241,visual search task,2024.1.5,None,2024-10-04 11h22.29.971547 +0530,
55,0,55,0,105.27083919999995,,105.21806379999998,5,105.27083919999995,105.27083919999995,0.038359700000000885,106.30440090000002,107.19053570000005,[-0.20833333333333334],[-0.13671875],[1],[0],[0],[1.9353183999999146],['target'],485604,001,2024-10-04_11h22.22.241,visual search task,2024.1.5,None,2024-10-04 11h22.29.971547 +0530,
56,0,56,0,107.24129149999999,,107.20094289999997,5,107.24129149999999,107.24129149999999,0.028807200000073863,108.2714254,109.07453269999996,[0.3828125],[-0.2591145833333333],[1],[0],[0],[1.8461761999999453],['target'],485604,001,2024-10-04_11h22.22.241,visual search task,2024.1.5,None,2024-10-04 11h22.29.971547 +0530,
57,0,57,0,109.12358700000004,,109.08477549999998,5,109.12358700000004,109.12358700000004,0.028401000000030763,110.1545908999999,110.38999220000005,[0.3411458333333333],[-0.1328125],[1],[0],[0],[1.2785601000000497],['target'],485604,001,2024-10-04_11h22.22.241,visual search task,2024.1.5,None,2024-10-04 11h22.29.971547 +0530,
58,0,58,0,110.47068020000006,,110.40088779999996,10,110.47068020000006,110.47068020000006,0.0460845000000063,111.47335019999991,112.5067474,[0.07552083333333333],[0.22916666666666666],[1],[0],[0],[2.0614080000000286],['target'],485604,001,2024-10-04_11h22.22.241,visual search task,2024.1.5,None,2024-10-04 11h22.29.971547 +0530,
59,0,59,0,112.58754060000001,,112.51737789999993,10,112.58754060000001,112.58754060000001,0.043125099999997474,113.62079790000007,114.74205749999987,[-0.028645833333333332],[0.2903645833333333],[1],[0],[0],[2.1826295000000755],['target'],485604,001,2024-10-04_11h22.22.241,visual search task,2024.1.5,None,2024-10-04 11h22.29.971547 +0530,
60,0,60,0,114.80825600000003,,114.75187060000007,10,114.80825600000003,114.80825600000003,0.04024010000011913,,115.22244460000002,[-0.028645833333333332],[0.2903645833333333],[1],[0],[0],[0.4315534999998363],[],485604,001,2024-10-04_11h22.22.241,visual search task,2024.1.5,None,2024-10-04 11h22.29.971547 +0530,
61,0,61,0,115.27058650000004,,115.22793769999998,5,115.27058650000004,115.27058650000004,0.018957199999931618,116.28762460000007,117.49179359999994,[0.4830729166666667],[0.09114583333333333],[1],[0],[0],[2.245134300000018],['target'],485604,001,2024-10-04_11h22.22.241,visual search task,2024.1.5,None,2024-10-04 11h22.29.971547 +0530,
62,0,62,0,117.57080829999995,,117.50209270000005,10,117.57080829999995,117.57080829999995,0.04491839999991498,118.58725479999998,119.85845470000004,[-0.10026041666666667],[-0.2799479166666667],[1],[0],[0],[2.312821200000144],[],485604,001,2024-10-04_11h22.22.241,visual search task,2024.1.5,None,2024-10-04 11h22.29.971547 +0530,
63,0,63,0,119.90751899999987,,119.86839830000008,5,119.90751899999987,119.90751899999987,0.027668500000118,120.95463319999999,122.1581979,[0.19401041666666666],[0.4153645833333333],[1],[0],[0],[2.2631114000000707],['target'],485604,001,2024-10-04_11h22.22.241,visual search task,2024.1.5,None,2024-10-04 11h22.29.971547 +0530,
64,0,64,0,122.23703780000005,,122.16856839999991,10,122.23703780000005,122.23703780000005,0.043123400000013135,123.25401740000007,123.70655779999993,[0.01171875],[0.37890625],[1],[0],[0],[1.4964437000000999],['target'],485604,001,2024-10-04_11h22.22.241,visual search task,2024.1.5,None,2024-10-04 11h22.29.971547 +0530,
65,0,65,0,123.75362059999998,,123.71394689999988,5,123.75362059999998,123.75362059999998,0.02244610000002467,124.78776719999996,125.65850709999995,[-0.03515625],[-0.4231770833333333],[1],[0],[0],[1.9227920999999242],['target'],485604,001,2024-10-04_11h22.22.241,visual search task,2024.1.5,None,2024-10-04 11h22.29.971547 +0530,
66,0,66,0,125.73714689999997,,125.66933990000007,10,125.73714689999997,125.73714689999997,0.04562989999999445,126.77068919999988,127.50766649999991,[0.5013020833333334],[0.16015625],[1],[0],[0],[1.7943582000000333],['target'],485604,001,2024-10-04_11h22.22.241,visual search task,2024.1.5,None,2024-10-04 11h22.29.971547 +0530,
67,0,67,0,127.57042660000002,,127.52035660000001,5,127.57042660000002,127.57042660000002,0.030673999999862644,128.58881589999987,129.39003359999992,[-0.13541666666666666],[-0.4661458333333333],[1],[0],[0],[1.8414694000000509],['target'],485604,001,2024-10-04_11h22.22.241,visual search task,2024.1.5,None,2024-10-04 11h22.29.971547 +0530,
68,0,68,0,129.48716309999986,,129.4011908,10,129.48716309999986,129.48716309999986,0.04506360000004861,130.50611449999997,131.2066471999999,[-0.22395833333333334],[0.06380208333333333],[1],[0],[0],[1.7624788000000535],['target'],485604,001,2024-10-04_11h22.22.241,visual search task,2024.1.5,None,2024-10-04 11h22.29.971547 +0530,
69,0,69,0,131.25373820000004,,131.21341830000006,5,131.25373820000004,131.25373820000004,0.021983900000122958,132.28699890000007,133.0578791999999,[-0.4114583333333333],[-0.009114583333333334],[1],[0],[0],[1.8231086999999206],['target'],485604,001,2024-10-04_11h22.22.241,visual search task,2024.1.5,None,2024-10-04 11h22.29.971547 +0530,
70,0,70,0,133.10695269999997,,133.06818429999998,5,133.10695269999997,133.10695269999997,0.028077900000198497,134.13734470000009,135.1739869999999,[-0.34765625],[-0.2916666666666667],[1],[0],[0],[2.07898339999997],['target'],485604,001,2024-10-04_11h22.22.241,visual search task,2024.1.5,None,2024-10-04 11h22.29.971547 +0530,
71,0,71,0,135.25357129999998,,135.18411160000005,10,135.25357129999998,135.25357129999998,0.04574499999989712,136.30357260000005,136.97209909999992,[-0.009114583333333334],[0.3671875],[1],[0],[0],[1.743838500000038],['target'],485604,001,2024-10-04_11h22.22.241,visual search task,2024.1.5,None,2024-10-04 11h22.29.971547 +0530,
72,0,72,0,137.03687319999995,,136.97880069999997,10,137.03687319999995,137.03687319999995,0.038102299999991374,138.05384660000004,139.1262824999999,[-0.2877604166666667],[-0.46484375],[1],[0],[0],[2.1102604999998675],['target'],485604,001,2024-10-04_11h22.22.241,visual search task,2024.1.5,None,2024-10-04 11h22.29.971547 +0530,
73,0,73,0,139.17014569999992,,139.13052270000003,5,139.17014569999992,139.17014569999992,0.017748299999993833,140.18703329999994,140.9069881999999,[0.26953125],[0.25],[1],[0],[0],[1.7586555000000317],['target'],485604,001,2024-10-04_11h22.22.241,visual search task,2024.1.5,None,2024-10-04 11h22.29.971547 +0530,
74,0,74,0,140.95687629999998,,140.91719710000007,5,140.95687629999998,140.95687629999998,0.02805350000016915,142.00371569999993,143.07360319999998,[0.4921875],[-0.3815104166666667],[1],[0],[0],[2.129752099999905],['target'],485604,001,2024-10-04_11h22.22.241,visual search task,2024.1.5,None,2024-10-04 11h22.29.971547 +0530,
75,0,75,0,143.12189310000008,,143.08386270000005,5,143.12189310000008,143.12189310000008,0.027189500000076805,144.1705047999999,145.3070204999999,[0.4309895833333333],[-0.3151041666666667],[1],[0],[0],[2.1972659000000476],['target'],485604,001,2024-10-04_11h22.22.241,visual search task,2024.1.5,None,2024-10-04 11h22.29.971547 +0530,
76,0,76,0,145.38662369999997,,145.3170963,5,145.38662369999997,145.38662369999997,0.03596889999994346,146.42021729999988,147.3405034,[-0.2838541666666667],[0.24739583333333334],[1],[0],[0],[1.9887765000000854],['target'],485604,001,2024-10-04_11h22.22.241,visual search task,2024.1.5,None,2024-10-04 11h22.29.971547 +0530,
77,0,77,0,147.41978249999988,,147.35046979999993,10,147.41978249999988,147.41978249999988,0.043450500000062675,148.45328199999994,149.2581482999999,[-0.5013020833333334],[-0.3046875],[1],[0],[0],[1.8656158999999661],['target'],485604,001,2024-10-04_11h22.22.241,visual search task,2024.1.5,None,2024-10-04 11h22.29.971547 +0530,
78,0,78,0,149.30293589999997,,149.26316470000006,5,149.30293589999997,149.30293589999997,0.019538299999794617,150.32023630000003,150.95614469999987,[-0.17447916666666666],[0.01171875],[1],[0],[0],[1.673591199999919],['target'],485604,001,2024-10-04_11h22.22.241,visual search task,2024.1.5,None,2024-10-04 11h22.29.971547 +0530,
79,0,79,0,151.03666729999986,,150.9658918,10,151.03666729999986,151.03666729999986,0.04513919999999416,152.0536864999999,153.09003329999996,[-0.4309895833333333],[0.4231770833333333],[1],[0],[0],[2.0805304000000433],['target'],485604,001,2024-10-04_11h22.22.241,visual search task,2024.1.5,None,2024-10-04 11h22.29.971547 +0530,
80,0,80,0,153.13936480000007,,153.10171480000008,5,153.13936480000007,153.13936480000007,0.02630360000011933,154.18662059999997,155.72272369999996,[0.052083333333333336],[-0.3880208333333333],[1],[0],[0],[2.596105399999942],['target'],485604,001,2024-10-04_11h22.22.241,visual search task,2024.1.5,None,2024-10-04 11h22.29.971547 +0530,
81,0,81,0,155.80289399999992,,155.73297869999988,10,155.80289399999992,155.80289399999992,0.04669220000005225,156.82083250000005,157.69020299999988,[-0.18619791666666666],[-0.21484375],[1],[0],[0],[1.912061200000153],['target'],485604,001,2024-10-04_11h22.22.241,visual search task,2024.1.5,None,2024-10-04 11h22.29.971547 +0530,
82,0,82,0,157.75272930000006,,157.70223050000004,5,157.75272930000006,157.75272930000006,0.028892799999994168,158.77002390000007,161.54022940000004,[0.4244791666666667],[0.46875],[1],[0],[0],[3.8109139000000596],['target'],485604,001,2024-10-04_11h22.22.241,visual search task,2024.1.5,None,2024-10-04 11h22.29.971547 +0530,
83,0,83,0,161.61942950000002,,161.55094099999997,10,161.61942950000002,161.61942950000002,0.044542099999944185,162.65339130000007,164.23735209999995,[0.4791666666666667],[-0.1171875],[1],[0],[0],[2.6437700000001314],['target'],485604,001,2024-10-04_11h22.22.241,visual search task,2024.1.5,None,2024-10-04 11h22.29.971547 +0530,
84,0,84,0,164.30274659999986,,164.24206750000008,10,164.30274659999986,164.30274659999986,0.035296100000095976,165.3363099999999,165.8377756,[-0.19010416666666666],[0.2825520833333333],[1],[0],[0],[1.5606460999999854],['target'],485604,001,2024-10-04_11h22.22.241,visual search task,2024.1.5,None,2024-10-04 11h22.29.971547 +0530,
85,0,85,0,165.9024133999999,,165.84293619999994,10,165.9024133999999,165.9024133999999,0.03572700000017903,166.90684710000005,167.99077450000004,[0.21614583333333334],[0.23828125],[1],[0],[0],[2.1126191999999264],['target'],485604,001,2024-10-04_11h22.22.241,visual search task,2024.1.5,None,2024-10-04 11h22.29.971547 +0530,
86,0,86,0,168.03578119999997,,167.99561749999998,5,168.03578119999997,168.03578119999997,0.018705400000044392,169.05286109999997,169.28887989999998,[-0.32421875],[-0.18619791666666666],[1],[0],[0],[1.2748085000000628],['target'],485604,001,2024-10-04_11h22.22.241,visual search task,2024.1.5,None,2024-10-04 11h22.29.971547 +0530,
87,0,87,0,169.33908810000003,,169.29877740000006,5,169.33908810000003,169.33908810000003,0.028837000000066837,170.38643550000006,170.8567097,[0.3697916666666667],[-0.3125],[1],[0],[0],[1.5302767000000586],['target'],485604,001,2024-10-04_11h22.22.241,visual search task,2024.1.5,None,2024-10-04 11h22.29.971547 +0530,
88,0,88,0,170.90438500000005,,170.86706849999996,5,170.90438500000005,170.90438500000005,0.026806800000031217,171.90670410000007,172.72281529999987,[0.48046875],[-0.2591145833333333],[1],[0],[0],[1.8303134999998747],['target'],485604,001,2024-10-04_11h22.22.241,visual search task,2024.1.5,None,2024-10-04 11h22.29.971547 +0530,
89,0,89,0,172.77343079999991,,172.73297350000007,5,172.77343079999991,172.77343079999991,0.02892340000016702,173.80273710000006,174.53934189999995,[0.2643229166666667],[0.11848958333333333],[1],[0],[0],[1.7788981999999578],['target'],485604,001,2024-10-04_11h22.22.241,visual search task,2024.1.5,None,2024-10-04 11h22.29.971547 +0530,
90,0,90,0,174.63568429999987,,174.54972380000004,10,174.63568429999987,174.63568429999987,0.062027299999954266,175.66923599999996,176.3558490999999,[-0.44140625],[-0.09375],[1],[0],[0],[1.7459530999999515],['target'],485604,001,2024-10-04_11h22.22.241,visual search task,2024.1.5,None,2024-10-04 11h22.29.971547 +0530,
91,0,91,0,176.41914999999995,,176.3678104999999,5,176.41914999999995,176.41914999999995,0.02820760000008704,177.45271980000007,178.82285739999998,[0.23177083333333334],[0.4583333333333333],[1],[0],[0],[2.4283697999999276],['target'],485604,001,2024-10-04_11h22.22.241,visual search task,2024.1.5,None,2024-10-04 11h22.29.971547 +0530,
92,0,92,0,178.90206510000007,,178.8335353,10,178.90206510000007,178.90206510000007,0.04565320000006068,179.91892899999993,181.25455050000005,[-0.028645833333333332],[0.4088541666666667],[1],[0],[0],[2.376730899999984],['target'],485604,001,2024-10-04_11h22.22.241,visual search task,2024.1.5,None,2024-10-04 11h22.29.971547 +0530,
93,0,93,0,181.31908320000002,,181.26681510000003,5,181.31908320000002,181.31908320000002,0.027957700000115437,182.35275860000002,183.25632309999992,[-0.16927083333333334],[-0.09895833333333333],[1],[0],[0],[1.9628181999999015],['target'],485604,001,2024-10-04_11h22.22.241,visual search task,2024.1.5,None,2024-10-04 11h22.29.971547 +0530,
94,0,94,0,183.33553039999993,,183.2664302999999,10,183.33553039999993,183.33553039999993,0.04363550000016403,184.36884469999995,184.92168859999992,[-0.4817708333333333],[0.044270833333333336],[1],[0],[0],[1.6131060000000161],['target'],485604,001,2024-10-04_11h22.22.241,visual search task,2024.1.5,None,2024-10-04 11h22.29.971547 +0530,
95,0,95,0,185.00210220000008,,184.93173769999999,10,185.00210220000008,185.00210220000008,0.04261139999994157,186.02136470000005,187.97160259999987,[-0.3307291666666667],[-0.4505208333333333],[1],[0],[0],[2.998553700000002],['target'],485604,001,2024-10-04_11h22.22.241,visual search task,2024.1.5,None,2024-10-04 11h22.29.971547 +0530,
96,0,96,0,188.01900369999998,,187.98183519999998,5,188.01900369999998,188.01900369999998,0.026428300000134186,189.03558679999992,189.3379941999999,[-0.26171875],[0.20833333333333334],[1],[0],[0],[1.3309893999999076],['target'],485604,001,2024-10-04_11h22.22.241,visual search task,2024.1.5,None,2024-10-04 11h22.29.971547 +0530,
97,0,97,0,189.4019318999999,,189.34801829999992,5,189.4019318999999,189.4019318999999,0.03961329999992813,190.4357023,190.73935669999992,[-0.057291666666666664],[-0.4244791666666667],[1],[0],[0],[1.3530322999999953],['target'],485604,001,2024-10-04_11h22.22.241,visual search task,2024.1.5,None,2024-10-04 11h22.29.971547 +0530,
98,0,98,0,190.80204290000006,,190.74982849999992,5,190.80204290000006,190.80204290000006,0.029203699999925448,191.83554490000006,193.63926730000003,[0.13932291666666666],[0.4010416666666667],[1],[0],[0],[2.8617001000000073],['target'],485604,001,2024-10-04_11h22.22.241,visual search task,2024.1.5,None,2024-10-04 11h22.29.971547 +0530,
99,0,99,0,193.71834940000008,,193.64941610000005,10,193.71834940000008,193.71834940000008,0.04359780000004321,194.7198633999999,196.1375817999999,[-0.3333333333333333],[-0.3033854166666667],[1],[0],[0],[2.445959600000151],['target'],485604,001,2024-10-04_11h22.22.241,visual search task,2024.1.5,None,2024-10-04 11h22.29.971547 +0530,
100,0,100,0,196.18491169999993,,196.1430957,5,196.18491169999993,196.18491169999993,0.020213199999943754,197.2189429,198.32242989999986,[0.022135416666666668],[0.3151041666666667],[1],[0],[0],[2.159337800000003],['target'],485604,001,2024-10-04_11h22.22.241,visual search task,2024.1.5,None,2024-10-04 11h22.29.971547 +0530,
101,0,101,0,198.40160360000004,,198.33269629999995,10,198.40160360000004,198.40160360000004,0.051124999999956344,199.4352394,202.42075619999991,[0.13671875],[-0.07291666666666667],[1],[0],[0],[4.0384959999998955],['target'],485604,001,2024-10-04_11h22.22.241,visual search task,2024.1.5,None,2024-10-04 11h22.29.971547 +0530,
102,0,102,0,202.48470909999992,,202.42555820000007,10,202.48470909999992,202.48470909999992,0.03618140000003223,203.4890994,205.08858039999996,[-0.4596354166666667],[0.4388020833333333],[1],[0],[0],[2.627067399999987],['target'],485604,001,2024-10-04_11h22.22.241,visual search task,2024.1.5,None,2024-10-04 11h22.29.971547 +0530,
103,0,103,0,205.15413179999996,,205.0986089999999,10,205.15413179999996,205.15413179999996,0.040028800000072806,206.18496170000003,207.9212232,[-0.15755208333333334],[-0.15234375],[1],[0],[0],[2.78354719999993],['target'],485604,001,2024-10-04_11h22.22.241,visual search task,2024.1.5,None,2024-10-04 11h22.29.971547 +0530,
104,0,104,0,207.9683169,,207.9315752,5,207.9683169,207.9683169,0.025403599999890503,209.00180309999996,209.70544059999997,[-0.21484375],[0.014322916666666666],[1],[0],[0],[1.7496424000000843],['target'],485604,001,2024-10-04_11h22.22.241,visual search task,2024.1.5,None,2024-10-04 11h22.29.971547 +0530,
105,0,105,0,209.75265639999998,,209.71568000000002,5,209.75265639999998,209.75265639999998,0.02638969999998153,210.7850916,211.4881152999999,[0.16015625],[0.10807291666666667],[1],[0],[0],[1.7475537999998778],['target'],485604,001,2024-10-04_11h22.22.241,visual search task,2024.1.5,None,2024-10-04 11h22.29.971547 +0530,
106,0,106,0,211.56810100000007,,211.49799630000007,10,211.56810100000007,211.56810100000007,0.044059199999992416,212.6013011,213.18761059999997,[-0.24609375],[-0.0625],[1],[0],[0],[1.6469372999999905],['target'],485604,001,2024-10-04_11h22.22.241,visual search task,2024.1.5,None,2024-10-04 11h22.29.971547 +0530,
107,0,107,0,213.23637269999995,,213.19814429999997,5,213.23637269999995,213.23637269999995,0.026425400000107402,214.26822509999988,214.87211419999994,[0.17838541666666666],[-0.020833333333333332],[1],[0],[0],[1.6489121000001887],['target'],485604,001,2024-10-04_11h22.22.241,visual search task,2024.1.5,None,2024-10-04 11h22.29.971547 +0530,
108,0,108,0,214.9199251,,214.8823319999999,5,214.9199251,214.9199251,0.026196799999979703,215.96824319999996,216.5049022999999,[0.16015625],[-0.3059895833333333],[1],[0],[0],[1.5976631000000907],['target'],485604,001,2024-10-04_11h22.22.241,visual search task,2024.1.5,None,2024-10-04 11h22.29.971547 +0530,
109,0,109,0,216.58433979999995,,216.51530230000003,10,216.58433979999995,216.58433979999995,0.043153599999868675,217.58736249999993,217.88622370000007,[0.4544270833333333],[-0.02734375],[1],[0],[0],[1.329362200000105],['target'],485604,001,2024-10-04_11h22.22.241,visual search task,2024.1.5,None,2024-10-04 11h22.29.971547 +0530,
110,0,110,0,217.95094659999995,,217.89154630000007,10,217.95094659999995,217.95094659999995,0.03706990000000587,218.96781669999996,220.08674389999987,[0.3984375],[0.125],[1],[0],[0],[2.1585051999998086],['target'],485604,001,2024-10-04_11h22.22.241,visual search task,2024.1.5,None,2024-10-04 11h22.29.971547 +0530,
111,0,111,0,220.17058829999996,,220.0968410999999,10,220.17058829999996,220.17058829999996,0.044247700000141776,221.2179767,230.3033679,[-0.3880208333333333],[0.4765625],[1],[0],[0],[10.163645899999892],['target'],485604,001,2024-10-04_11h22.22.241,visual search task,2024.1.5,None,2024-10-04 11h22.29.971547 +0530,
112,0,112,0,230.38389239999992,,230.31254850000005,10,230.38389239999992,230.38389239999992,0.04327630000011595,231.41746669999998,232.11989470000003,[-0.4088541666666667],[-0.17447916666666666],[1],[0],[0],[1.7652141999999458],['target'],485604,001,2024-10-04_11h22.22.241,visual search task,2024.1.5,None,2024-10-04 11h22.29.971547 +0530,
113,0,113,0,232.20034009999995,,232.13045510000006,10,232.20034009999995,232.20034009999995,0.0546615999999176,233.2344490999999,234.620273,[-0.00390625],[0.3567708333333333],[1],[0],[0],[2.436634599999934],['target'],485604,001,2024-10-04_11h22.22.241,visual search task,2024.1.5,None,2024-10-04 11h22.29.971547 +0530,
114,0,114,0,234.6676278,,234.62843539999994,5,234.6676278,234.6676278,0.025350599999910628,235.67150279999987,236.18927280000003,[0.10546875],[0.12239583333333333],[1],[0],[0],[1.5361996999999974],['target'],485604,001,2024-10-04_11h22.22.241,visual search task,2024.1.5,None,2024-10-04 11h22.29.971547 +0530,
115,0,115,0,236.25083870000003,,236.20125000000007,5,236.25083870000003,236.25083870000003,0.02746579999984533,237.2842189999999,237.48543539999991,[0.10677083333333333],[-0.033854166666666664],[1],[0],[0],[1.2582475000001523],['target'],485604,001,2024-10-04_11h22.22.241,visual search task,2024.1.5,None,2024-10-04 11h22.29.971547 +0530,
116,0,116,0,237.56997030000002,,237.4907458,10,237.56997030000002,237.56997030000002,0.0588759999998274,238.61730510000007,239.36986449999995,[0.07942708333333333],[0.234375],[1],[0],[0],[1.8204556999999113],['target'],485604,001,2024-10-04_11h22.22.241,visual search task,2024.1.5,None,2024-10-04 11h22.29.971547 +0530,
117,0,117,0,239.4342107,,239.3804794,5,239.4342107,239.4342107,0.029847000000017943,240.4508570999999,240.65472419999992,[0.0234375],[0.16796875],[1],[0],[0],[1.245807700000114],['target'],485604,001,2024-10-04_11h22.22.241,visual search task,2024.1.5,None,2024-10-04 11h22.29.971547 +0530,
118,0,118,0,240.70197089999988,,240.66456010000002,5,240.70197089999988,240.70197089999988,0.024930900000072143,241.70470699999987,242.60451839999996,[-0.2578125],[-0.14583333333333334],[1],[0],[0],[1.9161728000001403],['target'],485604,001,2024-10-04_11h22.22.241,visual search task,2024.1.5,None,2024-10-04 11h22.29.971547 +0530,
119,0,119,0,242.6534282,,242.61491339999998,5,242.6534282,242.6534282,0.027262299999847528,243.70069549999994,244.90415000000007,[-0.03515625],[-0.40234375],[1],[0],[0],[2.2633771000000706],['target'],485604,001,2024-10-04_11h22.22.241,visual search task,2024.1.5,None,2024-10-04 11h22.29.971547 +0530,
120,0,120,0,244.98346249999986,,244.9145028999999,10,244.98346249999986,244.98346249999986,0.048959899999999834,245.9862986999999,246.6360858999999,[0.3971354166666667],[0.02734375],[1],[0],[0],[1.674351500000057],['target'],485604,001,2024-10-04_11h22.22.241,visual search task,2024.1.5,None,2024-10-04 11h22.29.971547 +0530,
121,0,121,0,246.7001811,,246.6404505999999,10,246.7001811,246.7001811,0.03458820000014384,247.7018911,247.95224389999998,[0.28515625],[0.029947916666666668],[1],[0],[0],[1.2773313000000144],['target'],485604,001,2024-10-04_11h22.22.241,visual search task,2024.1.5,None,2024-10-04 11h22.29.971547 +0530,
122,0,122,0,248.0002081,,247.95817199999988,5,248.0002081,248.0002081,0.019735000000082437,249.03390119999995,249.57082509999987,[0.3815104166666667],[0.3072916666666667],[1],[0],[0],[1.5933195000000069],['target'],485604,001,2024-10-04_11h22.22.241,visual search task,2024.1.5,None,2024-10-04 11h22.29.971547 +0530,
123,0,123,0,249.63355750000005,,249.58113690000005,5,249.63355750000005,249.63355750000005,0.030737899999849105,250.6673613999999,251.20511229999988,[0.00390625],[0.18880208333333334],[1],[0],[0],[1.5940049999999246],['target'],485604,001,2024-10-04_11h22.22.241,visual search task,2024.1.5,None,2024-10-04 11h22.29.971547 +0530,
124,0,124,0,251.26685900000007,,251.21547669999995,5,251.26685900000007,251.26685900000007,0.02686830000016016,252.28377690000002,253.75132480000002,[-0.06510416666666667],[0.15234375],[1],[0],[0],[2.5110531000000265],['target'],485604,001,2024-10-04_11h22.22.241,visual search task,2024.1.5,None,2024-10-04 11h22.29.971547 +0530,
125,0,125,0,253.81681090000006,,253.75869540000008,5,253.81681090000006,253.81681090000006,0.028046600000152466,254.83345759999997,256.35480729999995,[-0.24739583333333334],[0.3880208333333333],[1],[0],[0],[2.5692054999999527],['target'],485604,001,2024-10-04_11h22.22.241,visual search task,2024.1.5,None,2024-10-04 11h22.29.971547 +0530,
126,0,126,0,256.3998388,,256.3600724999999,5,256.3998388,256.3998388,0.02263109999989865,257.4166011,258.55113359999996,[0.14453125],[0.35546875],[1],[0],[0],[2.1692401000000245],['target'],485604,001,2024-10-04_11h22.22.241,visual search task,2024.1.5,None,2024-10-04 11h22.29.971547 +0530,
127,0,127,0,258.60001650000004,,258.55538439999987,5,258.60001650000004,258.60001650000004,0.025158499999861306,259.59985170000004,261.4517079,[0.4440104166666667],[0.37109375],[1],[0],[0],[2.8717225000000326],['target'],485604,001,2024-10-04_11h22.22.241,visual search task,2024.1.5,None,2024-10-04 11h22.29.971547 +0530,
128,0,128,0,261.53301379999994,,261.4565278,10,261.53301379999994,261.53301379999994,0.04186589999994794,262.54968080000003,263.0226433999999,[0.4739583333333333],[0.3359375],[1],[0],[0],[1.524633200000153],['target'],485604,001,2024-10-04_11h22.22.241,visual search task,2024.1.5,None,2024-10-04 11h22.29.971547 +0530,
129,0,129,0,263.0663955,,263.0265873999999,5,263.0663955,263.0663955,0.01761420000002545,264.0705831,264.78532999999993,[-0.036458333333333336],[-0.16145833333333334],[1],[0],[0],[1.7414567000000716],['target'],485604,001,2024-10-04_11h22.22.241,visual search task,2024.1.5,None,2024-10-04 11h22.29.971547 +0530,
130,0,130,0,264.8330427000001,,264.79202439999995,5,264.8330427000001,264.8330427000001,0.021789100000205508,265.85124210000004,266.5019253999999,[-0.12239583333333333],[-0.12760416666666666],[1],[0],[0],[1.6889579999999569],['target'],485604,001,2024-10-04_11h22.22.241,visual search task,2024.1.5,None,2024-10-04 11h22.29.971547 +0530,
131,0,131,0,266.58285239999987,,266.5139300999999,10,266.58285239999987,266.58285239999987,0.04407590000005257,267.59964880000007,270.18440069999997,[0.43359375],[0.09375],[1],[0],[0],[3.6282043999999587],[],485604,001,2024-10-04_11h22.22.241,visual search task,2024.1.5,None,2024-10-04 11h22.29.971547 +0530,
132,0,132,0,270.2328657999999,,270.1901992999999,5,270.2328657999999,270.2328657999999,0.02583239999989928,271.2523911999999,271.8710526,[-0.2747395833333333],[0.0013020833333333333],[1],[0],[0],[1.6554464000000735],['target'],485604,001,2024-10-04_11h22.22.241,visual search task,2024.1.5,None,2024-10-04 11h22.29.971547 +0530,
133,0,133,0,271.98536609999996,,271.8807380999999,10,271.98536609999996,271.98536609999996,0.0705827000001591,273.0329755,274.6848344,[-0.203125],[-0.3372395833333333],[1],[0],[0],[2.7349709000000075],['target'],485604,001,2024-10-04_11h22.22.241,visual search task,2024.1.5,None,2024-10-04 11h22.29.971547 +0530,
134,0,134,0,274.7661146999999,,274.6942139999999,5,274.7661146999999,274.7661146999999,0.04193119999990813,275.7828927999999,276.5704432,[0.2643229166666667],[-0.2604166666666667],[1],[0],[0],[1.8357613000000583],['target'],485604,001,2024-10-04_11h22.22.241,visual search task,2024.1.5,None,2024-10-04 11h22.29.971547 +0530,
135,0,135,0,276.63262839999993,,276.5779279000001,5,276.63262839999993,276.63262839999993,0.030911599999853934,277.6494805,278.91924189999986,[0.45703125],[-0.08072916666666667],[1],[0],[0],[2.311637000000019],['target'],485604,001,2024-10-04_11h22.22.241,visual search task,2024.1.5,None,2024-10-04 11h22.29.971547 +0530,
136,0,136,0,279.0325908,,278.92539369999986,10,279.0325908,279.0325908,0.06679329999997208,280.0660238999999,280.73461640000005,[-0.12369791666666667],[-0.3190104166666667],[1],[0],[0],[1.7431133999998565],['target'],485604,001,2024-10-04_11h22.22.241,visual search task,2024.1.5,None,2024-10-04 11h22.29.971547 +0530,
137,0,137,0,280.7992981,,280.7425974,5,280.7992981,280.7992981,0.03312750000009146,281.81886659999986,283.3063138,[0.4466145833333333],[0.07161458333333333],[1],[0],[0],[2.5316049999998995],['target'],485604,001,2024-10-04_11h22.22.241,visual search task,2024.1.5,None,2024-10-04 11h22.29.971547 +0530,
138,0,138,0,283.4029694000001,,283.3132581,10,283.4029694000001,283.4029694000001,0.060586899999862,284.4326526,286.58426229999986,[0.4440104166666667],[0.453125],[1],[0],[0],[3.2114125999999033],['target'],485604,001,2024-10-04_11h22.22.241,visual search task,2024.1.5,None,2024-10-04 11h22.29.971547 +0530,
139,0,139,0,286.6489512999999,,286.59170330000006,10,286.6489512999999,286.6489512999999,0.03833710000003521,287.6657163,289.21956410000007,[-0.04296875],[-0.1875],[1],[0],[0],[2.5903851999999006],[],485604,001,2024-10-04_11h22.22.241,visual search task,2024.1.5,None,2024-10-04 11h22.29.971547 +0530,
140,0,140,0,289.265756,,289.22928580000007,5,289.265756,289.265756,0.023407099999985803,290.28316530000006,290.6861208999999,[0.07291666666666667],[-0.15234375],[1],[0],[0],[1.4345923000000766],['target'],485604,001,2024-10-04_11h22.22.241,visual search task,2024.1.5,None,2024-10-04 11h22.29.971547 +0530,
141,0,141,0,290.76569330000007,,290.6964052999999,10,290.76569330000007,290.76569330000007,0.04423810000002959,291.7823701,292.7505401000001,[-0.375],[0.052083333333333336],[1],[0],[0],[2.0114088000000265],['target'],485604,001,2024-10-04_11h22.22.241,visual search task,2024.1.5,None,2024-10-04 11h22.29.971547 +0530,
142,0,142,0,292.79894769999987,,292.7567781,5,292.79894769999987,292.79894769999987,0.02147360000003573,293.7994985,295.4366659,[0.3776041666666667],[0.24348958333333334],[1],[0],[0],[2.658989600000041],['target'],485604,001,2024-10-04_11h22.22.241,visual search task,2024.1.5,None,2024-10-04 11h22.29.971547 +0530,
143,0,143,0,295.49915469999996,,295.4500845,5,295.49915469999996,295.49915469999996,0.028073899999981222,296.53252939999993,297.76911799999993,[-0.01953125],[-0.4583333333333333],[1],[0],[0],[2.293787699999939],['target'],485604,001,2024-10-04_11h22.22.241,visual search task,2024.1.5,None,2024-10-04 11h22.29.971547 +0530,
144,0,144,0,297.81690189999995,,297.7792829,5,297.81690189999995,297.81690189999995,0.025981999999885375,298.86577850000003,299.4683476,[-0.18229166666666666],[-0.05078125],[1],[0],[0],[1.6640563000000839],['target'],485604,001,2024-10-04_11h22.22.241,visual search task,2024.1.5,None,2024-10-04 11h22.29.971547 +0530,
145,0,145,0,299.5173124999999,,299.4782946999999,5,299.5173124999999,299.5173124999999,0.02760349999994105,300.54901369999993,301.1192590999999,[0.24088541666666666],[0.3776041666666667],[1],[0],[0],[1.6147318000000723],['target'],485604,001,2024-10-04_11h22.22.241,visual search task,2024.1.5,None,2024-10-04 11h22.29.971547 +0530,
146,0,146,0,301.16747669999995,,301.1295172,5,301.16747669999995,301.16747669999995,0.02773750000005748,302.21582480000006,302.58618490000003,[-0.037760416666666664],[0.2877604166666667],[1],[0],[0],[1.4305491000000075],[],485604,001,2024-10-04_11h22.22.241,visual search task,2024.1.5,None,2024-10-04 11h22.29.971547 +0530,
147,0,147,0,302.66529330000003,,302.5964577,10,302.66529330000003,302.66529330000003,0.04390799999987394,303.6985623999999,304.00277000000006,[-0.453125],[0.2643229166666667],[1],[0],[0],[1.3636705999999776],['target'],485604,001,2024-10-04_11h22.22.241,visual search task,2024.1.5,None,2024-10-04 11h22.29.971547 +0530,
148,0,148,0,304.0854718999999,,304.0126336999999,10,304.0854718999999,304.0854718999999,0.05719190000013441,305.11543800000004,306.3344574,[-0.4127604166666667],[-0.2265625],[1],[0],[0],[2.266070599999921],['target'],485604,001,2024-10-04_11h22.22.241,visual search task,2024.1.5,None,2024-10-04 11h22.29.971547 +0530,
149,0,149,0,306.38407729999994,,306.3460683999999,5,306.38407729999994,306.38407729999994,0.026932600000009188,307.43225170000005,308.6357407999999,[0.024739583333333332],[0.15234375],[1],[0],[0],[2.2642865999998776],['target'],485604,001,2024-10-04_11h22.22.241,visual search task,2024.1.5,None,2024-10-04 11h22.29.971547 +0530,
150,0,150,0,308.68439650000005,,308.64560830000005,5,308.68439650000005,308.68439650000005,0.02815880000002835,309.7321655999999,311.0343611999999,[-0.032552083333333336],[-0.4388020833333333],[1],[0],[0],[2.3620027999998],['target'],485604,001,2024-10-04_11h22.22.241,visual search task,2024.1.5,None,2024-10-04 11h22.29.971547 +0530,
151,0,151,0,311.11515239999994,,311.04476079999995,10,311.11515239999994,311.11515239999994,0.0454283999999916,312.13177040000005,313.58584010000004,[-0.3255208333333333],[-0.4192708333333333],[1],[0],[0],[2.4970149999999194],['target'],485604,001,2024-10-04_11h22.22.241,visual search task,2024.1.5,None,2024-10-04 11h22.29.971547 +0530,
152,0,152,0,313.68178009999997,,313.5966117999999,10,313.68178009999997,313.68178009999997,0.04711969999993926,314.6835796999999,315.4176081999999,[-0.20703125],[0.06380208333333333],[1],[0],[0],[1.7756712000000334],['target'],485604,001,2024-10-04_11h22.22.241,visual search task,2024.1.5,None,2024-10-04 11h22.29.971547 +0530,
153,0,153,0,315.46704840000007,,315.42838529999995,5,315.46704840000007,315.46704840000007,0.026560699999890858,316.49855890000003,317.63554380000005,[-0.46875],[0.2994791666666667],[1],[0],[0],[2.1820635000001403],['target'],485604,001,2024-10-04_11h22.22.241,visual search task,2024.1.5,None,2024-10-04 11h22.29.971547 +0530,
154,0,154,0,317.6982934,,317.6459646999999,5,317.6982934,317.6982934,0.030011999999942418,318.7319330999999,319.7691872999999,[-0.2799479166666667],[0.2552083333333333],[1],[0],[0],[2.0950825999998415],['target'],485604,001,2024-10-04_11h22.22.241,visual search task,2024.1.5,None,2024-10-04 11h22.29.971547 +0530,
155,0,155,0,319.84808729999986,,319.7795612,10,319.84808729999986,319.84808729999986,0.042715499999985695,320.88169229999994,322.3851322999999,[0.3450520833333333],[-0.3854166666666667],[1],[0],[0],[2.5643058999999084],['target'],485604,001,2024-10-04_11h22.22.241,visual search task,2024.1.5,None,2024-10-04 11h22.29.971547 +0530,
156,0,156,0,322.43323199999986,,322.39527010000006,5,322.43323199999986,322.43323199999986,0.02620030000002771,323.43566770000007,324.13525490000006,[-0.18098958333333334],[0.0026041666666666665],[1],[0],[0],[1.715067099999942],[],485604,001,2024-10-04_11h22.22.241,visual search task,2024.1.5,None,2024-10-04 11h22.29.971547 +0530,
157,0,157,0,324.18439839999996,,324.1454586,5,324.18439839999996,324.18439839999996,0.02864539999995941,325.21504789999995,326.15053409999996,[0.10026041666666667],[0.30859375],[1],[0],[0],[1.9780713000000105],['target'],485604,001,2024-10-04_11h22.22.241,visual search task,2024.1.5,None,2024-10-04 11h22.29.971547 +0530,
158,0,158,0,326.2479756,,326.1609455,10,326.2479756,326.2479756,0.046236500000077285,327.28165109999986,327.9002002,[-0.3020833333333333],[-0.1484375],[1],[0],[0],[1.6946283999998286],['target'],485604,001,2024-10-04_11h22.22.241,visual search task,2024.1.5,None,2024-10-04 11h22.29.971547 +0530,
159,0,159,0,327.9812709,,327.91241059999993,10,327.9812709,327.9812709,0.05055640000000494,328.9840569999999,329.26681740000004,[-0.4127604166666667],[-0.0859375],[1],[0],[0],[1.3056738999998743],['target'],485604,001,2024-10-04_11h22.22.241,visual search task,2024.1.5,None,2024-10-04 11h22.29.971547 +0530,
160,0,160,0,329.3477851,,329.27658180000003,10,329.3477851,329.3477851,0.0548306999999113,330.3520985,331.0002835999999,[0.17838541666666666],[0.1015625],[1],[0],[0],[1.670607800000198],[],485604,001,2024-10-04_11h22.22.241,visual search task,2024.1.5,None,2024-10-04 11h22.29.971547 +0530,
161,0,161,0,331.047648,,331.0096917999999,5,331.047648,331.047648,0.025140799999917363,332.0476363999999,334.6349052999999,[-0.4661458333333333],[0.4505208333333333],[1],[0],[0],[3.601269900000034],['target'],485604,001,2024-10-04_11h22.22.241,visual search task,2024.1.5,None,2024-10-04 11h22.29.971547 +0530,
162,0,162,0,334.68308639999987,,334.6454426999999,5,334.68308639999987,334.68308639999987,0.026883600000019214,335.73137640000004,337.30170599999997,[0.46484375],[0.2838541666666667],[1],[0],[0],[2.630835100000013],['target'],485604,001,2024-10-04_11h22.22.241,visual search task,2024.1.5,None,2024-10-04 11h22.29.971547 +0530,
163,0,163,0,337.39754889999995,,337.3122687,10,337.39754889999995,337.39754889999995,0.05887939999979608,338.4167239000001,340.0369711000001,[0.35546875],[0.2786458333333333],[1],[0],[0],[2.667541700000129],['target'],485604,001,2024-10-04_11h22.22.241,visual search task,2024.1.5,None,2024-10-04 11h22.29.971547 +0530,
164,0,164,0,340.08085119999987,,340.04140140000004,5,340.08085119999987,340.08085119999987,0.01765690000001996,341.09799399999997,343.0673136999999,[0.014322916666666666],[-0.20703125],[1],[0],[0],[3.008399000000054],['target'],485604,001,2024-10-04_11h22.22.241,visual search task,2024.1.5,None,2024-10-04 11h22.29.971547 +0530,
165,0,165,0,343.1475545999999,,343.07769729999995,10,343.1475545999999,343.1475545999999,0.04462330000001202,344.1811307999999,345.08559509999986,[0.3424479166666667],[-0.17057291666666666],[1],[0],[0],[1.9650583000000097],['target'],485604,001,2024-10-04_11h22.22.241,visual search task,2024.1.5,None,2024-10-04 11h22.29.971547 +0530,
166,0,166,0,345.1832259999999,,345.0927093,10,345.1832259999999,345.1832259999999,0.06224729999985357,346.23101129999986,346.96671530000003,[-0.1015625],[0.19140625],[1],[0],[0],[1.8126800000000003],['target'],485604,001,2024-10-04_11h22.22.241,visual search task,2024.1.5,None,2024-10-04 11h22.29.971547 +0530,
167,0,167,0,347.01384689999986,,346.9719975999999,5,347.01384689999986,347.01384689999986,0.01974249999989297,348.0312618999999,348.6674714999999,[-0.3723958333333333],[0.12630208333333334],[1],[0],[0],[1.676055099999985],['target'],485604,001,2024-10-04_11h22.22.241,visual search task,2024.1.5,None,2024-10-04 11h22.29.971547 +0530,
168,0,168,0,348.7475357999999,,348.67739929999993,10,348.7475357999999,348.7475357999999,0.044020499999987805,349.7515602000001,351.93205910000006,[0.4596354166666667],[-0.3098958333333333],[1],[0],[0],[3.2121462000000065],['target'],485604,001,2024-10-04_11h22.22.241,visual search task,2024.1.5,None,2024-10-04 11h22.29.971547 +0530,
169,0,169,0,351.9970825999999,,351.9368202999999,10,351.9970825999999,351.9970825999999,0.03506640000000516,352.99988959999996,354.12022460000003,[0.07942708333333333],[0.21223958333333334],[1],[0],[0],[2.1486955000000307],[],485604,001,2024-10-04_11h22.22.241,visual search task,2024.1.5,None,2024-10-04 11h22.29.971547 +0530,
170,0,170,0,354.1803084999999,,354.12489370000003,10,354.1803084999999,354.1803084999999,0.034755199999835895,355.1971040000001,356.26568169999996,[0.2786458333333333],[-0.020833333333333332],[1],[0],[0],[2.1061954000001606],['target'],485604,001,2024-10-04_11h22.22.241,visual search task,2024.1.5,None,2024-10-04 11h22.29.971547 +0530,
171,0,171,0,356.3137199999999,,356.27119089999997,5,356.3137199999999,356.3137199999999,0.018630600000051345,357.3475274,358.51758799999993,[0.4609375],[0.4596354166666667],[1],[0],[0],[2.22813270000006],['target'],485604,001,2024-10-04_11h22.22.241,visual search task,2024.1.5,None,2024-10-04 11h22.29.971547 +0530,
172,0,172,0,358.5992228,,358.52841779999994,10,358.5992228,358.5992228,0.05431610000005094,359.63278289999994,360.8986404,[-0.4322916666666667],[-0.033854166666666664],[1],[0],[0],[2.3174850000000333],['target'],485604,001,2024-10-04_11h22.22.241,visual search task,2024.1.5,None,2024-10-04 11h22.29.971547 +0530,
173,0,173,0,360.9634303999999,,360.90393730000005,10,360.9634303999999,360.9634303999999,0.036180399999921065,361.980413,363.56555879999996,[-0.21744791666666666],[-0.3072916666666667],[1],[0],[0],[2.625737099999924],['target'],485604,001,2024-10-04_11h22.22.241,visual search task,2024.1.5,None,2024-10-04 11h22.29.971547 +0530,
174,0,174,0,363.64674579999996,,363.57258290000004,10,363.64674579999996,363.64674579999996,0.04257170000005317,364.69702630000006,367.3149443,[-0.10546875],[0.15494791666666666],[1],[0],[0],[3.7007719000000634],[],485604,001,2024-10-04_11h22.22.241,visual search task,2024.1.5,None,2024-10-04 11h22.29.971547 +0530,
175,0,175,0,367.3491302,,367.31949529999997,5,367.3491302,367.3491302,0.01760130000002391,368.3803929999999,368.88381430000004,[-0.15885416666666666],[-0.17578125],[1],[0],[0],[1.5468532999998388],['target'],485604,001,2024-10-04_11h22.22.241,visual search task,2024.1.5,None,2024-10-04 11h22.29.971547 +0530,
176,0,176,0,368.96352049999996,,368.8941657999999,10,368.96352049999996,368.96352049999996,0.04594670000005863,369.9827676,372.1196281,[0.12760416666666666],[-0.45703125],[1],[0],[0],[3.181143699999893],['target'],485604,001,2024-10-04_11h22.22.241,visual search task,2024.1.5,None,2024-10-04 11h22.29.971547 +0530,
177,0,177,0,372.16338070000006,,372.12393999999995,5,372.16338070000006,372.16338070000006,0.018090999999913038,373.1969173,375.0663454999999,[-0.42578125],[0.10416666666666667],[1],[0],[0],[2.9241809000000103],['target'],485604,001,2024-10-04_11h22.22.241,visual search task,2024.1.5,None,2024-10-04 11h22.29.971547 +0530,
178,0,178,0,375.1299655999999,,375.0765039999999,5,375.1299655999999,375.1299655999999,0.02971779999984392,376.1636581,377.03337940000006,[-0.061197916666666664],[0.11979166666666667],[1],[0],[0],[1.9284930000001168],['target'],485604,001,2024-10-04_11h22.22.241,visual search task,2024.1.5,None,2024-10-04 11h22.29.971547 +0530,
179,0,179,0,377.08231320000004,,377.04356959999996,5,377.08231320000004,377.08231320000004,0.02778289999992012,378.1135723,379.5158194999999,[0.3971354166666667],[-0.026041666666666668],[1],[0],[0],[2.446187000000009],['target'],485604,001,2024-10-04_11h22.22.241,visual search task,2024.1.5,None,2024-10-04 11h22.29.971547 +0530,
180,0,180,0,379.5645852,,379.52620639999986,5,379.5645852,379.5645852,0.027895400000033987,380.5971827999999,381.7999176000001,[-0.41796875],[0.14192708333333334],[1],[0],[0],[2.2473050000000967],['target'],485604,001,2024-10-04_11h22.22.241,visual search task,2024.1.5,None,2024-10-04 11h22.29.971547 +0530,
181,0,181,0,381.8485840000001,,381.81111310000006,5,381.8485840000001,381.8485840000001,0.027565800000047602,382.89677499999993,383.4491384999999,[-0.3932291666666667],[0.41796875],[1],[0],[0],[1.6128254000000197],['target'],485604,001,2024-10-04_11h22.22.241,visual search task,2024.1.5,None,2024-10-04 11h22.29.971547 +0530,
182,0,182,0,383.5296157,,383.45945949999987,10,383.5296157,383.5296157,0.0446007999998983,384.5463543999999,385.8153998,[-0.18359375],[-0.3606770833333333],[1],[0],[0],[2.31279440000003],['target'],485604,001,2024-10-04_11h22.22.241,visual search task,2024.1.5,None,2024-10-04 11h22.29.971547 +0530,
183,0,183,0,385.87962919999995,,385.82564350000007,5,385.87962919999995,385.87962919999995,0.0316038999999364,386.89885649999997,387.7839128999999,[0.2942708333333333],[0.03515625],[1],[0],[0],[1.9277856999999585],['target'],485604,001,2024-10-04_11h22.22.241,visual search task,2024.1.5,None,2024-10-04 11h22.29.971547 +0530,
184,0,184,0,387.87980019999986,,387.794087,10,387.87980019999986,387.87980019999986,0.042942000000039116,388.89791949999994,390.5659624,[0.1171875],[-0.3151041666666667],[1],[0],[0],[2.730421299999989],['target'],485604,001,2024-10-04_11h22.22.241,visual search task,2024.1.5,None,2024-10-04 11h22.29.971547 +0530,
185,0,185,0,390.6159719,,390.57793919999995,5,390.6159719,390.6159719,0.026382399999874906,391.64832209999986,392.3321994999999,[-0.0625],[0.09895833333333333],[1],[0],[0],[1.7296318999999585],['target'],485604,001,2024-10-04_11h22.22.241,visual search task,2024.1.5,None,2024-10-04 11h22.29.971547 +0530,
186,0,186,0,392.38247249999995,,392.3372921,5,392.38247249999995,392.38247249999995,0.028504000000111773,393.4297761999999,394.06528019999996,[-0.17708333333333334],[0.45703125],[1],[0],[0],[1.6997965999998996],['target'],485604,001,2024-10-04_11h22.22.241,visual search task,2024.1.5,None,2024-10-04 11h22.29.971547 +0530,
187,0,187,0,394.11619470000005,,394.0752765,5,394.11619470000005,394.11619470000005,0.029410399999960646,395.14639680000005,395.6170798999999,[-0.453125],[0.4140625],[1],[0],[0],[1.5137594999998782],['target'],485604,001,2024-10-04_11h22.22.241,visual search task,2024.1.5,None,2024-10-04 11h22.29.971547 +0530,
188,0,188,0,395.67942519999997,,395.62787449999996,5,395.67942519999997,395.67942519999997,0.028965900000002875,396.7131067999999,397.8190333,[0.3450520833333333],[-0.4622395833333333],[1],[0],[0],[2.163773900000024],['target'],485604,001,2024-10-04_11h22.22.241,visual search task,2024.1.5,None,2024-10-04 11h22.29.971547 +0530,
189,0,189,0,397.8629693999999,,397.8293839999999,5,397.8629693999999,397.8629693999999,0.022805299999845374,398.8967143,399.99992180000004,[0.3802083333333333],[-0.13932291666666666],[1],[0],[0],[2.149045699999988],['target'],485604,001,2024-10-04_11h22.22.241,visual search task,2024.1.5,None,2024-10-04 11h22.29.971547 +0530,
190,0,190,0,400.06255669999996,,400.01045049999993,5,400.06255669999996,400.06255669999996,0.029198300000189192,401.07991820000007,402.73271049999994,[0.4296875],[0.15364583333333334],[1],[0],[0],[2.694278999999824],['target'],485604,001,2024-10-04_11h22.22.241,visual search task,2024.1.5,None,2024-10-04 11h22.29.971547 +0530,
191,0,191,0,402.7787728999999,,402.74160140000004,5,402.7787728999999,402.7787728999999,0.02551919999996244,403.81272839999997,405.24870080000005,[-0.13541666666666666],[-0.484375],[1],[0],[0],[2.4825576999999157],['target'],485604,001,2024-10-04_11h22.22.241,visual search task,2024.1.5,None,2024-10-04 11h22.29.971547 +0530,
192,0,192,0,405.3127095,,405.25515960000007,10,405.3127095,405.3127095,0.03989119999982904,406.3293248,407.06658029999994,[-0.21484375],[-0.12630208333333334],[1],[0],[0],[1.772399299999961],['target'],485604,001,2024-10-04_11h22.22.241,visual search task,2024.1.5,None,2024-10-04 11h22.29.971547 +0530,
193,0,193,0,407.1122751999999,,407.07105490000004,5,407.1122751999999,407.1122751999999,0.017962200000056328,408.1295275,408.79949149999993,[-0.09244791666666667],[0.3671875],[1],[0],[0],[1.7106521999999131],['target'],485604,001,2024-10-04_11h22.22.241,visual search task,2024.1.5,None,2024-10-04 11h22.29.971547 +0530,
194,0,194,0,408.89565719999996,,408.8101895,10,408.89565719999996,408.89565719999996,0.06122949999985394,409.9137045,411.0657636000001,[0.421875],[-0.3893229166666667],[1],[0],[0],[2.1959477000000334],['target'],485604,001,2024-10-04_11h22.22.241,visual search task,2024.1.5,None,2024-10-04 11h22.29.971547 +0530,
195,0,195,0,411.1456197,,411.07544359999997,10,411.1456197,411.1456197,0.04422700000009172,412.1623399,412.9157192,[0.3424479166666667],[-0.32421875],[1],[0],[0],[1.797060399999964],['target'],485604,001,2024-10-04_11h22.22.241,visual search task,2024.1.5,None,2024-10-04 11h22.29.971547 +0530,
196,0,196,0,412.9619774999999,,412.92173179999986,5,412.9619774999999,412.9619774999999,0.019898799999964467,413.9959211999999,414.59904860000006,[-0.29296875],[-0.3411458333333333],[1],[0],[0],[1.657871699999987],['target'],485604,001,2024-10-04_11h22.22.241,visual search task,2024.1.5,None,2024-10-04 11h22.29.971547 +0530,
197,0,197,0,414.64808449999987,,414.60934569999995,5,414.64808449999987,414.64808449999987,0.02815750000013395,415.67927910000003,416.4661395999999,[0.4231770833333333],[-0.3515625],[1],[0],[0],[1.8300632000000405],['target'],485604,001,2024-10-04_11h22.22.241,visual search task,2024.1.5,None,2024-10-04 11h22.29.971547 +0530,
198,0,198,0,416.51411340000004,,416.47629170000005,5,416.51411340000004,416.51411340000004,0.027474100000063117,417.56249609999986,418.1323488999999,[0.31640625],[-0.28125],[1],[0],[0],[1.6297153000000435],['target'],485604,001,2024-10-04_11h22.22.241,visual search task,2024.1.5,None,2024-10-04 11h22.29.971547 +0530,
199,0,199,0,418.2117693,,418.1430997,10,418.2117693,418.2117693,0.04546159999995325,419.21447319999993,419.84803110000007,[-0.055989583333333336],[-0.22395833333333334],[1],[0],[0],[1.6609717999999702],['target'],485604,001,2024-10-04_11h22.22.241,visual search task,2024.1.5,None,2024-10-04 11h22.29.971547 +0530,
